timestamp,acc_x,acc_y,acc_z,ecg_1,ecg_2
0.0,-2380.0,-175.0,718.0,372553.0,372553.0
1.0,-2368.0,-192.0,739.0,354976.0,354976.0
2.0,-2378.0,-204.0,729.0,344406.0,344406.0
3.0,-2394.0,-194.0,736.0,337809.0,337809.0
4.0,-2392.0,-216.0,739.0,333430.0,333430.0
5.0,-2406.0,-214.0,756.0,330117.0,330117.0
6.0,-2391.0,-214.0,756.0,325898.0,325898.0
7.0,-2385.0,-224.0,766.0,325356.0,325356.0
8.0,-2400.0,-204.0,772.0,314173.0,314173.0
9.0,-2381.0,-194.0,782.0,294390.0,294390.0
10.0,-2387.0,-178.0,812.0,277163.0,277163.0
11.0,-2383.0,-173.0,808.0,262679.0,262679.0
12.0,-2383.0,-154.0,815.0,250998.0,250998.0
13.0,-2406.0,-154.0,814.0,241168.0,241168.0
14.0,-2413.0,-140.0,802.0,232264.0,232264.0
15.0,-2411.0,-138.0,788.0,224119.0,224119.0
16.0,-2407.0,-138.0,784.0,216684.0,216684.0
17.0,-2406.0,-144.0,774.0,210013.0,210013.0
18.0,-2397.0,-148.0,778.0,203796.0,203796.0
19.0,-2403.0,-160.0,758.0,198061.0,198061.0
20.0,-2377.0,-168.0,748.0,192864.0,192864.0
21.0,-2369.0,-160.0,750.0,188421.0,188421.0
22.0,-2368.0,-188.0,748.0,184648.0,184648.0
23.0,-2369.0,-196.0,743.0,181001.0,181001.0
24.0,-2361.0,-206.0,754.0,177285.0,177285.0
25.0,-2357.0,-208.0,756.0,173612.0,173612.0
26.0,-2378.0,-214.0,764.0,170521.0,170521.0
27.0,-2389.0,-228.0,758.0,168078.0,168078.0
28.0,-2397.0,-232.0,752.0,165896.0,165896.0
29.0,-2401.0,-228.0,743.0,163487.0,163487.0
30.0,-2409.0,-226.0,724.0,161054.0,161054.0
31.0,-2408.0,-238.0,735.0,159018.0,159018.0
32.0,-2420.0,-240.0,708.0,157327.0,157327.0
33.0,-2421.0,-236.0,730.0,155796.0,155796.0
34.0,-2420.0,-244.0,712.0,153952.0,153952.0
35.0,-2432.0,-240.0,724.0,152093.0,152093.0
36.0,-2428.0,-225.0,716.0,150594.0,150594.0
37.0,-2430.0,-214.0,702.0,149488.0,149488.0
38.0,-2416.0,-206.0,710.0,148533.0,148533.0
39.0,-2418.0,-202.0,696.0,147429.0,147429.0
40.0,-2419.0,-184.0,714.0,146003.0,146003.0
41.0,-2414.0,-171.0,720.0,145058.0,145058.0
42.0,-2418.0,-177.0,732.0,144398.0,144398.0
43.0,-2421.0,-177.0,739.0,143662.0,143662.0
44.0,-2408.0,-176.0,747.0,142784.0,142784.0
45.0,-2432.0,-188.0,744.0,141718.0,141718.0
46.0,-2433.0,-182.0,754.0,140978.0,140978.0
47.0,-2435.0,-198.0,764.0,140635.0,140635.0
48.0,-2447.0,-194.0,760.0,140300.0,140300.0
49.0,-2444.0,-188.0,766.0,139624.0,139624.0
50.0,-2435.0,-218.0,768.0,138870.0,138870.0
51.0,-2435.0,-208.0,764.0,138353.0,138353.0
52.0,-2420.0,-212.0,770.0,138393.0,138393.0
53.0,-2420.0,-221.0,768.0,138443.0,138443.0
54.0,-2407.0,-231.0,780.0,138116.0,138116.0
55.0,-2397.0,-236.0,792.0,137775.0,137775.0
56.0,-2397.0,-264.0,786.0,137501.0,137501.0
57.0,-2382.0,-290.0,782.0,137546.0,137546.0
58.0,-2369.0,-294.0,770.0,137624.0,137624.0
59.0,-2369.0,-296.0,764.0,137176.0,137176.0
60.0,-2364.0,-307.0,770.0,136749.0,136749.0
61.0,-2359.0,-308.0,778.0,136515.0,136515.0
62.0,-2364.0,-328.0,788.0,136262.0,136262.0
63.0,-2364.0,-326.0,790.0,136046.0,136046.0
64.0,-2359.0,-324.0,790.0,135428.0,135428.0
65.0,-2371.0,-313.0,774.0,134648.0,134648.0
66.0,-2376.0,-324.0,764.0,133903.0,133903.0
67.0,-2394.0,-326.0,745.0,133266.0,133266.0
68.0,-2404.0,-330.0,747.0,132788.0,132788.0
69.0,-2421.0,-314.0,752.0,132048.0,132048.0
70.0,-2419.0,-326.0,750.0,131032.0,131032.0
71.0,-2416.0,-319.0,748.0,130546.0,130546.0
72.0,-2416.0,-309.0,772.0,130317.0,130317.0
73.0,-2421.0,-312.0,766.0,129723.0,129723.0
74.0,-2426.0,-302.0,772.0,128949.0,128949.0
75.0,-2430.0,-286.0,794.0,128364.0,128364.0
76.0,-2442.0,-273.0,794.0,128291.0,128291.0
77.0,-2445.0,-273.0,792.0,128444.0,128444.0
78.0,-2462.0,-277.0,796.0,128449.0,128449.0
79.0,-2459.0,-292.0,788.0,128059.0,128059.0
80.0,-2459.0,-292.0,794.0,127649.0,127649.0
81.0,-2458.0,-298.0,788.0,127551.0,127551.0
82.0,-2468.0,-304.0,784.0,127746.0,127746.0
83.0,-2461.0,-322.0,792.0,127690.0,127690.0
84.0,-2462.0,-323.0,804.0,127394.0,127394.0
85.0,-2447.0,-326.0,820.0,127079.0,127079.0
86.0,-2442.0,-338.0,819.0,126710.0,126710.0
87.0,-2447.0,-338.0,819.0,126598.0,126598.0
88.0,-2442.0,-346.0,829.0,126171.0,126171.0
89.0,-2436.0,-358.0,840.0,125591.0,125591.0
90.0,-2449.0,-346.0,821.0,125326.0,125326.0
91.0,-2438.0,-344.0,829.0,125209.0,125209.0
92.0,-2439.0,-346.0,829.0,125458.0,125458.0
93.0,-2431.0,-332.0,838.0,125756.0,125756.0
94.0,-2435.0,-324.0,836.0,125561.0,125561.0
95.0,-2433.0,-317.0,846.0,125133.0,125133.0
96.0,-2426.0,-318.0,842.0,124873.0,124873.0
97.0,-2424.0,-300.0,852.0,124809.0,124809.0
98.0,-2427.0,-304.0,860.0,124929.0,124929.0
99.0,-2426.0,-296.0,868.0,124916.0,124916.0
100.0,-2424.0,-282.0,860.0,124416.0,124416.0
101.0,-2428.0,-271.0,858.0,123995.0,123995.0
102.0,-2422.0,-277.0,854.0,124045.0,124045.0
103.0,-2415.0,-282.0,854.0,124169.0,124169.0
104.0,-2420.0,-254.0,856.0,124126.0,124126.0
105.0,-2397.0,-240.0,862.0,124104.0,124104.0
106.0,-2404.0,-234.0,856.0,124355.0,124355.0
107.0,-2407.0,-223.0,848.0,124629.0,124629.0
108.0,-2406.0,-212.0,854.0,124469.0,124469.0
109.0,-2383.0,-184.0,862.0,123847.0,123847.0
110.0,-2402.0,-175.0,850.0,123486.0,123486.0
111.0,-2399.0,-168.0,844.0,123694.0,123694.0
112.0,-2408.0,-170.0,835.0,124075.0,124075.0
113.0,-2414.0,-136.0,840.0,123918.0,123918.0
114.0,-2428.0,-142.0,814.0,123428.0,123428.0
115.0,-2438.0,-148.0,821.0,122921.0,122921.0
116.0,-2425.0,-148.0,820.0,122901.0,122901.0
117.0,-2423.0,-164.0,823.0,123144.0,123144.0
118.0,-2420.0,-190.0,810.0,123169.0,123169.0
119.0,-2419.0,-204.0,823.0,122779.0,122779.0
120.0,-2403.0,-212.0,825.0,122528.0,122528.0
121.0,-2394.0,-228.0,812.0,122596.0,122596.0
122.0,-2377.0,-242.0,821.0,122694.0,122694.0
123.0,-2367.0,-264.0,840.0,123004.0,123004.0
124.0,-2353.0,-262.0,825.0,123173.0,123173.0
125.0,-2351.0,-256.0,817.0,122956.0,122956.0
126.0,-2334.0,-270.0,816.0,122891.0,122891.0
127.0,-2352.0,-258.0,816.0,123193.0,123193.0
128.0,-2361.0,-266.0,825.0,123437.0,123437.0
129.0,-2365.0,-250.0,819.0,123358.0,123358.0
130.0,-2392.0,-244.0,842.0,122810.0,122810.0
131.0,-2404.0,-234.0,842.0,123006.0,123006.0
132.0,-2408.0,-218.0,840.0,123408.0,123408.0
133.0,-2431.0,-225.0,825.0,123497.0,123497.0
134.0,-2428.0,-216.0,836.0,123427.0,123427.0
135.0,-2428.0,-208.0,850.0,123263.0,123263.0
136.0,-2423.0,-208.0,832.0,123433.0,123433.0
137.0,-2428.0,-200.0,836.0,123801.0,123801.0
138.0,-2411.0,-200.0,831.0,123923.0,123923.0
139.0,-2392.0,-194.0,840.0,123925.0,123925.0
140.0,-2381.0,-189.0,842.0,123605.0,123605.0
141.0,-2390.0,-196.0,846.0,123468.0,123468.0
142.0,-2384.0,-196.0,856.0,123765.0,123765.0
143.0,-2385.0,-192.0,870.0,124103.0,124103.0
144.0,-2382.0,-202.0,872.0,124210.0,124210.0
145.0,-2376.0,-214.0,870.0,124036.0,124036.0
146.0,-2381.0,-208.0,888.0,123911.0,123911.0
147.0,-2369.0,-219.0,898.0,124243.0,124243.0
148.0,-2365.0,-223.0,906.0,124276.0,124276.0
149.0,-2373.0,-226.0,888.0,124137.0,124137.0
150.0,-2355.0,-230.0,886.0,123995.0,123995.0
151.0,-2360.0,-236.0,892.0,123816.0,123816.0
152.0,-2357.0,-242.0,892.0,123697.0,123697.0
153.0,-2340.0,-229.0,882.0,123816.0,123816.0
154.0,-2335.0,-230.0,880.0,123601.0,123601.0
155.0,-2341.0,-234.0,856.0,123354.0,123354.0
156.0,-2342.0,-219.0,850.0,123446.0,123446.0
157.0,-2331.0,-215.0,856.0,123594.0,123594.0
158.0,-2337.0,-226.0,829.0,123496.0,123496.0
159.0,-2332.0,-223.0,850.0,123081.0,123081.0
160.0,-2338.0,-214.0,838.0,122551.0,122551.0
161.0,-2324.0,-219.0,840.0,122552.0,122552.0
162.0,-2351.0,-221.0,838.0,122798.0,122798.0
163.0,-2362.0,-222.0,840.0,122771.0,122771.0
164.0,-2359.0,-226.0,858.0,122426.0,122426.0
165.0,-2359.0,-225.0,848.0,121966.0,121966.0
166.0,-2355.0,-221.0,854.0,121813.0,121813.0
167.0,-2373.0,-226.0,856.0,122167.0,122167.0
168.0,-2383.0,-214.0,870.0,122311.0,122311.0
169.0,-2387.0,-208.0,878.0,122146.0,122146.0
170.0,-2388.0,-206.0,872.0,121896.0,121896.0
171.0,-2394.0,-200.0,868.0,121695.0,121695.0
172.0,-2387.0,-210.0,870.0,121752.0,121752.0
173.0,-2388.0,-198.0,858.0,121833.0,121833.0
174.0,-2388.0,-192.0,864.0,121782.0,121782.0
175.0,-2392.0,-204.0,864.0,121539.0,121539.0
176.0,-2402.0,-208.0,874.0,121422.0,121422.0
177.0,-2401.0,-198.0,866.0,121731.0,121731.0
178.0,-2402.0,-202.0,868.0,122084.0,122084.0
179.0,-2402.0,-200.0,842.0,122218.0,122218.0
180.0,-2406.0,-208.0,876.0,122117.0,122117.0
181.0,-2406.0,-214.0,862.0,122013.0,122013.0
182.0,-2413.0,-220.0,860.0,121688.0,121688.0
183.0,-2409.0,-236.0,870.0,121678.0,121678.0
184.0,-2402.0,-228.0,878.0,122069.0,122069.0
185.0,-2414.0,-246.0,862.0,122379.0,122379.0
186.0,-2417.0,-254.0,870.0,122630.0,122630.0
187.0,-2411.0,-248.0,862.0,123671.0,123671.0
188.0,-2413.0,-260.0,874.0,126156.0,126156.0
189.0,-2417.0,-266.0,862.0,129584.0,129584.0
190.0,-2411.0,-266.0,848.0,131606.0,131606.0
191.0,-2407.0,-282.0,858.0,132914.0,132914.0
192.0,-2402.0,-273.0,862.0,131383.0,131383.0
193.0,-2409.0,-281.0,864.0,128140.0,128140.0
194.0,-2400.0,-284.0,846.0,125718.0,125718.0
195.0,-2396.0,-279.0,866.0,123636.0,123636.0
196.0,-2383.0,-282.0,856.0,122459.0,122459.0
197.0,-2396.0,-292.0,842.0,121906.0,121906.0
198.0,-2378.0,-294.0,838.0,121626.0,121626.0
199.0,-2372.0,-304.0,834.0,121273.0,121273.0
200.0,-2383.0,-317.0,846.0,120571.0,120571.0
201.0,-2399.0,-315.0,846.0,120444.0,120444.0
202.0,-2415.0,-326.0,842.0,120995.0,120995.0
203.0,-2416.0,-310.0,850.0,121817.0,121817.0
204.0,-2414.0,-319.0,850.0,122311.0,122311.0
205.0,-2430.0,-322.0,856.0,122448.0,122448.0
206.0,-2440.0,-310.0,846.0,122474.0,122474.0
207.0,-2440.0,-330.0,868.0,122701.0,122701.0
208.0,-2447.0,-321.0,872.0,122826.0,122826.0
209.0,-2437.0,-314.0,858.0,122721.0,122721.0
210.0,-2433.0,-318.0,884.0,122611.0,122611.0
211.0,-2428.0,-314.0,868.0,122783.0,122783.0
212.0,-2427.0,-306.0,878.0,123184.0,123184.0
213.0,-2414.0,-322.0,876.0,123521.0,123521.0
214.0,-2419.0,-312.0,882.0,123488.0,123488.0
215.0,-2414.0,-319.0,882.0,123082.0,123082.0
216.0,-2424.0,-317.0,884.0,122946.0,122946.0
217.0,-2413.0,-306.0,894.0,123326.0,123326.0
218.0,-2400.0,-294.0,876.0,123542.0,123542.0
219.0,-2402.0,-298.0,876.0,123442.0,123442.0
220.0,-2387.0,-292.0,866.0,123348.0,123348.0
221.0,-2378.0,-282.0,844.0,123477.0,123477.0
222.0,-2366.0,-268.0,862.0,123869.0,123869.0
223.0,-2361.0,-278.0,866.0,124102.0,124102.0
224.0,-2354.0,-270.0,858.0,124019.0,124019.0
225.0,-2365.0,-271.0,854.0,123912.0,123912.0
226.0,-2381.0,-264.0,880.0,124122.0,124122.0
227.0,-2397.0,-250.0,872.0,124566.0,124566.0
228.0,-2383.0,-268.0,870.0,124727.0,124727.0
229.0,-2395.0,-271.0,870.0,124559.0,124559.0
230.0,-2406.0,-273.0,860.0,124164.0,124164.0
231.0,-2404.0,-281.0,860.0,124148.0,124148.0
232.0,-2416.0,-260.0,858.0,124361.0,124361.0
233.0,-2413.0,-284.0,834.0,124654.0,124654.0
234.0,-2420.0,-275.0,840.0,124743.0,124743.0
235.0,-2430.0,-302.0,852.0,124759.0,124759.0
236.0,-2426.0,-300.0,846.0,124878.0,124878.0
237.0,-2418.0,-310.0,844.0,125231.0,125231.0
238.0,-2423.0,-310.0,850.0,125607.0,125607.0
239.0,-2414.0,-310.0,858.0,125571.0,125571.0
240.0,-2423.0,-306.0,858.0,125617.0,125617.0
241.0,-2428.0,-304.0,870.0,125908.0,125908.0
242.0,-2411.0,-318.0,858.0,126379.0,126379.0
243.0,-2418.0,-316.0,858.0,127000.0,127000.0
244.0,-2413.0,-314.0,848.0,127249.0,127249.0
245.0,-2399.0,-320.0,860.0,127063.0,127063.0
246.0,-2404.0,-300.0,862.0,127102.0,127102.0
247.0,-2394.0,-308.0,862.0,127485.0,127485.0
248.0,-2397.0,-310.0,866.0,128142.0,128142.0
249.0,-2402.0,-325.0,858.0,128473.0,128473.0
250.0,-2399.0,-330.0,848.0,128453.0,128453.0
251.0,-2389.0,-338.0,840.0,128596.0,128596.0
252.0,-2387.0,-338.0,832.0,128880.0,128880.0
253.0,-2367.0,-340.0,844.0,128810.0,128810.0
254.0,-2371.0,-326.0,818.0,128421.0,128421.0
255.0,-2350.0,-334.0,827.0,128036.0,128036.0
256.0,-2344.0,-342.0,814.0,127710.0,127710.0
257.0,-2341.0,-319.0,838.0,127659.0,127659.0
258.0,-2320.0,-332.0,827.0,127549.0,127549.0
259.0,-2329.0,-324.0,840.0,127119.0,127119.0
260.0,-2331.0,-310.0,846.0,126523.0,126523.0
261.0,-2317.0,-306.0,860.0,126093.0,126093.0
262.0,-2343.0,-311.0,862.0,126193.0,126193.0
263.0,-2339.0,-294.0,850.0,126174.0,126174.0
264.0,-2345.0,-300.0,872.0,125682.0,125682.0
265.0,-2357.0,-302.0,870.0,125073.0,125073.0
266.0,-2348.0,-300.0,884.0,124874.0,124874.0
267.0,-2367.0,-304.0,876.0,125167.0,125167.0
268.0,-2390.0,-302.0,878.0,125361.0,125361.0
269.0,-2378.0,-290.0,888.0,125201.0,125201.0
270.0,-2385.0,-302.0,888.0,124568.0,124568.0
271.0,-2392.0,-288.0,874.0,124793.0,124793.0
272.0,-2397.0,-302.0,872.0,127534.0,127534.0
273.0,-2390.0,-313.0,884.0,129554.0,129554.0
274.0,-2404.0,-296.0,864.0,130889.0,130889.0
275.0,-2396.0,-284.0,874.0,131687.0,131687.0
276.0,-2404.0,-296.0,878.0,128218.0,128218.0
277.0,-2416.0,-296.0,872.0,124249.0,124249.0
278.0,-2413.0,-290.0,858.0,127626.0,127626.0
279.0,-2420.0,-284.0,870.0,132084.0,132084.0
280.0,-2406.0,-288.0,866.0,132478.0,132478.0
281.0,-2376.0,-275.0,850.0,132513.0,132513.0
282.0,-2364.0,-268.0,868.0,132720.0,132720.0
283.0,-2359.0,-254.0,856.0,132553.0,132553.0
284.0,-2358.0,-248.0,888.0,132003.0,132003.0
285.0,-2343.0,-250.0,884.0,131786.0,131786.0
286.0,-2354.0,-238.0,884.0,132069.0,132069.0
287.0,-2350.0,-228.0,876.0,132393.0,132393.0
288.0,-2364.0,-225.0,888.0,132213.0,132213.0
289.0,-2361.0,-223.0,896.0,132113.0,132113.0
290.0,-2389.0,-229.0,880.0,132129.0,132129.0
291.0,-2400.0,-224.0,868.0,132167.0,132167.0
292.0,-2393.0,-223.0,886.0,132520.0,132520.0
293.0,-2408.0,-228.0,878.0,132599.0,132599.0
294.0,-2395.0,-226.0,864.0,132361.0,132361.0
295.0,-2386.0,-242.0,876.0,132134.0,132134.0
296.0,-2384.0,-236.0,874.0,132034.0,132034.0
297.0,-2372.0,-256.0,870.0,132261.0,132261.0
298.0,-2372.0,-260.0,894.0,132283.0,132283.0
299.0,-2371.0,-271.0,882.0,131928.0,131928.0
300.0,-2370.0,-264.0,876.0,131241.0,131241.0
301.0,-2374.0,-275.0,874.0,131155.0,131155.0
302.0,-2371.0,-290.0,876.0,131404.0,131404.0
303.0,-2366.0,-296.0,864.0,131726.0,131726.0
304.0,-2365.0,-298.0,868.0,131888.0,131888.0
305.0,-2371.0,-288.0,854.0,131896.0,131896.0
306.0,-2352.0,-271.0,836.0,132054.0,132054.0
307.0,-2354.0,-271.0,842.0,132366.0,132366.0
308.0,-2352.0,-269.0,846.0,132655.0,132655.0
309.0,-2345.0,-262.0,858.0,132496.0,132496.0
310.0,-2347.0,-262.0,850.0,132011.0,132011.0
311.0,-2356.0,-254.0,864.0,131789.0,131789.0
312.0,-2345.0,-256.0,866.0,132033.0,132033.0
313.0,-2361.0,-256.0,870.0,132183.0,132183.0
314.0,-2364.0,-268.0,862.0,132144.0,132144.0
315.0,-2372.0,-266.0,874.0,132085.0,132085.0
316.0,-2395.0,-252.0,870.0,132088.0,132088.0
317.0,-2392.0,-282.0,874.0,132263.0,132263.0
318.0,-2378.0,-280.0,872.0,132253.0,132253.0
319.0,-2395.0,-286.0,886.0,131980.0,131980.0
320.0,-2388.0,-294.0,852.0,131861.0,131861.0
321.0,-2385.0,-308.0,854.0,131948.0,131948.0
322.0,-2361.0,-304.0,856.0,132314.0,132314.0
323.0,-2356.0,-306.0,844.0,132683.0,132683.0
324.0,-2364.0,-300.0,852.0,132739.0,132739.0
325.0,-2354.0,-302.0,876.0,132358.0,132358.0
326.0,-2340.0,-292.0,870.0,132205.0,132205.0
327.0,-2345.0,-304.0,874.0,132508.0,132508.0
328.0,-2352.0,-292.0,890.0,132750.0,132750.0
329.0,-2352.0,-300.0,880.0,132680.0,132680.0
330.0,-2354.0,-304.0,890.0,132268.0,132268.0
331.0,-2364.0,-300.0,884.0,132263.0,132263.0
332.0,-2374.0,-302.0,900.0,132498.0,132498.0
333.0,-2376.0,-288.0,908.0,132616.0,132616.0
334.0,-2388.0,-290.0,894.0,132714.0,132714.0
335.0,-2395.0,-290.0,882.0,132543.0,132543.0
336.0,-2407.0,-294.0,868.0,132480.0,132480.0
337.0,-2408.0,-302.0,860.0,132751.0,132751.0
338.0,-2416.0,-294.0,854.0,132874.0,132874.0
339.0,-2409.0,-294.0,827.0,132983.0,132983.0
340.0,-2419.0,-304.0,814.0,133046.0,133046.0
341.0,-2409.0,-288.0,802.0,133270.0,133270.0
342.0,-2416.0,-283.0,806.0,133868.0,133868.0
343.0,-2394.0,-286.0,798.0,134332.0,134332.0
344.0,-2390.0,-277.0,792.0,134157.0,134157.0
345.0,-2386.0,-267.0,804.0,133696.0,133696.0
346.0,-2378.0,-268.0,820.0,133616.0,133616.0
347.0,-2376.0,-279.0,836.0,133893.0,133893.0
348.0,-2392.0,-269.0,850.0,134104.0,134104.0
349.0,-2389.0,-269.0,846.0,134012.0,134012.0
350.0,-2401.0,-264.0,858.0,133746.0,133746.0
351.0,-2397.0,-270.0,846.0,133423.0,133423.0
352.0,-2402.0,-280.0,844.0,133269.0,133269.0
353.0,-2394.0,-275.0,868.0,133284.0,133284.0
354.0,-2404.0,-273.0,858.0,133176.0,133176.0
355.0,-2387.0,-271.0,844.0,132979.0,132979.0
356.0,-2392.0,-280.0,852.0,132829.0,132829.0
357.0,-2352.0,-240.0,842.0,133074.0,133074.0
358.0,-2349.0,-240.0,842.0,132796.0,132796.0
359.0,-2347.0,-242.0,850.0,132587.0,132587.0
360.0,-2397.0,-230.0,810.0,131681.0,131681.0
361.0,-2391.0,-217.0,817.0,132643.0,132643.0
362.0,-2390.0,-223.0,817.0,133629.0,133629.0
363.0,-2395.0,-232.0,840.0,134821.0,134821.0
364.0,-2397.0,-234.0,846.0,132752.0,132752.0
365.0,-2399.0,-240.0,836.0,131704.0,131704.0
366.0,-2373.0,-256.0,825.0,132889.0,132889.0
367.0,-2373.0,-256.0,825.0,132891.0,132891.0
368.0,-2369.0,-258.0,830.0,133471.0,133471.0
369.0,-2411.0,-256.0,858.0,138322.0,138322.0
370.0,-2406.0,-250.0,844.0,137056.0,137056.0
371.0,-2408.0,-252.0,854.0,139582.0,139582.0
372.0,-2380.0,-262.0,844.0,142921.0,142921.0
373.0,-2369.0,-256.0,840.0,142076.0,142076.0
374.0,-2376.0,-258.0,844.0,140795.0,140795.0
375.0,-2389.0,-268.0,878.0,144441.0,144441.0
376.0,-2383.0,-254.0,878.0,144495.0,144495.0
377.0,-2376.0,-264.0,890.0,143009.0,143009.0
378.0,-2361.0,-273.0,868.0,147078.0,147078.0
379.0,-2361.0,-273.0,868.0,147165.0,147165.0
380.0,-2354.0,-269.0,868.0,145333.0,145333.0
381.0,-2364.0,-279.0,900.0,143141.0,143141.0
382.0,-2380.0,-280.0,888.0,142743.0,142743.0
383.0,-2376.0,-277.0,906.0,142923.0,142923.0
384.0,-2348.0,-281.0,882.0,141189.0,141189.0
385.0,-2352.0,-268.0,900.0,141569.0,141569.0
386.0,-2357.0,-275.0,892.0,141879.0,141879.0
387.0,-2406.0,-250.0,872.0,141018.0,141018.0
388.0,-2400.0,-275.0,880.0,141318.0,141318.0
389.0,-2408.0,-266.0,884.0,141350.0,141350.0
390.0,-2369.0,-296.0,876.0,142001.0,142001.0
391.0,-2374.0,-292.0,858.0,141703.0,141703.0
392.0,-2365.0,-300.0,878.0,140963.0,140963.0
393.0,-2369.0,-269.0,880.0,1450459.0,1450459.0
394.0,-2356.0,-267.0,866.0,140847.0,140847.0
395.0,-2361.0,-273.0,864.0,141100.0,141100.0
396.0,-2388.0,-260.0,844.0,140011.0,140011.0
397.0,-2394.0,-260.0,860.0,140203.0,140203.0
398.0,-2400.0,-266.0,860.0,140188.0,140188.0
399.0,-2367.0,-266.0,884.0,140383.0,140383.0
400.0,-2370.0,-266.0,874.0,140510.0,140510.0
401.0,-2377.0,-260.0,852.0,140253.0,140253.0
402.0,-2394.0,-280.0,862.0,140753.0,140753.0
403.0,-2397.0,-271.0,876.0,140299.0,140299.0
404.0,-2397.0,-266.0,852.0,139920.0,139920.0
405.0,-2378.0,-270.0,860.0,141073.0,141073.0
406.0,-2378.0,-271.0,870.0,141086.0,141086.0
407.0,-2387.0,-264.0,866.0,141220.0,141220.0
408.0,-2381.0,-304.0,870.0,140306.0,140306.0
409.0,-2378.0,-302.0,862.0,140247.0,140247.0
410.0,-2373.0,-302.0,862.0,140366.0,140366.0
411.0,-2404.0,-294.0,854.0,139158.0,139158.0
412.0,-2402.0,-302.0,854.0,139388.0,139388.0
413.0,-2394.0,-296.0,868.0,139320.0,139320.0
414.0,-2384.0,-294.0,858.0,139461.0,139461.0
415.0,-2394.0,-294.0,858.0,139041.0,139041.0
416.0,-2371.0,-304.0,880.0,138608.0,138608.0
417.0,-2381.0,-294.0,854.0,146377.0,146377.0
418.0,-2388.0,-294.0,854.0,142954.0,142954.0
419.0,-2383.0,-304.0,864.0,140923.0,140923.0
420.0,-2397.0,-277.0,878.0,138970.0,138970.0
421.0,-2397.0,-271.0,892.0,139460.0,139460.0
422.0,-2380.0,-277.0,882.0,139868.0,139868.0
423.0,-2364.0,-268.0,882.0,140818.0,140818.0
424.0,-2371.0,-268.0,884.0,141207.0,141207.0
425.0,-2366.0,-266.0,880.0,141078.0,141078.0
426.0,-2382.0,-277.0,832.0,141588.0,141588.0
427.0,-2382.0,-277.0,832.0,141405.0,141405.0
428.0,-2387.0,-273.0,840.0,141208.0,141208.0
429.0,-2381.0,-292.0,858.0,142234.0,142234.0
430.0,-2389.0,-266.0,866.0,142437.0,142437.0
431.0,-2382.0,-288.0,860.0,143029.0,143029.0
432.0,-2378.0,-300.0,858.0,145002.0,145002.0
433.0,-2378.0,-300.0,846.0,145489.0,145489.0
434.0,-2381.0,-300.0,860.0,145974.0,145974.0
435.0,-2374.0,-280.0,866.0,143482.0,143482.0
436.0,-2374.0,-284.0,848.0,143230.0,143230.0
437.0,-2360.0,-284.0,882.0,142625.0,142625.0
438.0,-2366.0,-277.0,872.0,141222.0,141222.0
439.0,-2366.0,-277.0,872.0,141053.0,141053.0
440.0,-2383.0,-271.0,864.0,140599.0,140599.0
441.0,-2387.0,-286.0,880.0,140007.0,140007.0
442.0,-2388.0,-275.0,860.0,139733.0,139733.0
443.0,-2376.0,-283.0,870.0,139963.0,139963.0
444.0,-2386.0,-276.0,854.0,140259.0,140259.0
445.0,-2401.0,-288.0,852.0,140464.0,140464.0
446.0,-2397.0,-285.0,862.0,140743.0,140743.0
447.0,-2392.0,-314.0,872.0,140648.0,140648.0
448.0,-2385.0,-310.0,870.0,140891.0,140891.0
449.0,-2380.0,-300.0,856.0,140817.0,140817.0
450.0,-2394.0,-292.0,860.0,140943.0,140943.0
451.0,-2390.0,-294.0,884.0,140614.0,140614.0
452.0,-2406.0,-288.0,868.0,140522.0,140522.0
453.0,-2376.0,-294.0,864.0,140216.0,140216.0
454.0,-2389.0,-300.0,862.0,140182.0,140182.0
455.0,-2390.0,-302.0,858.0,140427.0,140427.0
456.0,-2374.0,-315.0,841.0,140243.0,140243.0
457.0,-2387.0,-336.0,842.0,140392.0,140392.0
458.0,-2379.0,-334.0,864.0,140674.0,140674.0
459.0,-2390.0,-360.0,834.0,140668.0,140668.0
460.0,-2390.0,-348.0,846.0,140940.0,140940.0
461.0,-2383.0,-358.0,834.0,140916.0,140916.0
462.0,-2410.0,-370.0,864.0,140793.0,140793.0
463.0,-2399.0,-368.0,854.0,140578.0,140578.0
464.0,-2398.0,-367.0,858.0,140583.0,140583.0
465.0,-2408.0,-352.0,844.0,141476.0,141476.0
466.0,-2397.0,-352.0,848.0,141188.0,141188.0
467.0,-2406.0,-360.0,842.0,141298.0,141298.0
468.0,-2408.0,-336.0,856.0,140341.0,140341.0
469.0,-2419.0,-332.0,854.0,140534.0,140534.0
470.0,-2420.0,-350.0,850.0,140503.0,140503.0
471.0,-2404.0,-332.0,868.0,139897.0,139897.0
472.0,-2404.0,-332.0,868.0,140155.0,140155.0
473.0,-2402.0,-346.0,862.0,140041.0,140041.0
474.0,-2394.0,-346.0,860.0,141002.0,141002.0
475.0,-2385.0,-334.0,858.0,141213.0,141213.0
476.0,-2386.0,-342.0,856.0,141881.0,141881.0
477.0,-2402.0,-326.0,856.0,139759.0,139759.0
478.0,-2400.0,-334.0,870.0,138668.0,138668.0
479.0,-2408.0,-334.0,870.0,138293.0,138293.0
480.0,-2390.0,-328.0,874.0,139944.0,139944.0
481.0,-2385.0,-325.0,868.0,140206.0,140206.0
482.0,-2392.0,-336.0,868.0,140509.0,140509.0
483.0,-2369.0,-336.0,898.0,141217.0,141217.0
484.0,-2369.0,-336.0,884.0,141579.0,141579.0
485.0,-2383.0,-344.0,882.0,141658.0,141658.0
486.0,-2374.0,-324.0,890.0,142687.0,142687.0
487.0,-2367.0,-313.0,900.0,142473.0,142473.0
488.0,-2367.0,-312.0,909.0,142424.0,142424.0
489.0,-2394.0,-302.0,888.0,143981.0,143981.0
490.0,-2384.0,-302.0,890.0,144052.0,144052.0
491.0,-2385.0,-302.0,884.0,144446.0,144446.0
492.0,-2381.0,-279.0,862.0,146037.0,146037.0
493.0,-2371.0,-281.0,868.0,146193.0,146193.0
494.0,-2373.0,-294.0,864.0,146321.0,146321.0
495.0,-2351.0,-313.0,870.0,143054.0,143054.0
496.0,-2345.0,-312.0,882.0,142889.0,142889.0
497.0,-2343.0,-309.0,878.0,142526.0,142526.0
498.0,-2355.0,-294.0,874.0,141803.0,141803.0
499.0,-2354.0,-294.0,882.0,141493.0,141493.0
500.0,-2362.0,-273.0,870.0,141341.0,141341.0
501.0,-2331.0,-281.0,896.0,141081.0,141081.0
502.0,-2345.0,-264.0,892.0,140971.0,140971.0
503.0,-2340.0,-280.0,902.0,141123.0,141123.0
504.0,-2367.0,-313.0,890.0,140984.0,140984.0
505.0,-2380.0,-317.0,884.0,141134.0,141134.0
506.0,-2371.0,-319.0,886.0,141346.0,141346.0
507.0,-2359.0,-330.0,882.0,141498.0,141498.0
508.0,-2350.0,-319.0,890.0,141417.0,141417.0
509.0,-2340.0,-324.0,896.0,141107.0,141107.0
510.0,-2338.0,-350.0,888.0,141217.0,141217.0
511.0,-2336.0,-358.0,890.0,140941.0,140941.0
512.0,-2338.0,-354.0,898.0,140829.0,140829.0
513.0,-2329.0,-332.0,907.0,141027.0,141027.0
514.0,-2342.0,-326.0,898.0,140970.0,140970.0
515.0,-2329.0,-338.0,894.0,141212.0,141212.0
516.0,-2349.0,-368.0,924.0,140939.0,140939.0
517.0,-2348.0,-368.0,924.0,141037.0,141037.0
518.0,-2359.0,-365.0,911.0,141288.0,141288.0
519.0,-2371.0,-362.0,954.0,140814.0,140814.0
520.0,-2371.0,-362.0,954.0,141045.0,141045.0
521.0,-2367.0,-364.0,972.0,141051.0,141051.0
522.0,-2390.0,-372.0,972.0,141024.0,141024.0
523.0,-2381.0,-370.0,962.0,140893.0,140893.0
524.0,-2381.0,-367.0,970.0,140963.0,140963.0
525.0,-2347.0,-365.0,966.0,141506.0,141506.0
526.0,-2341.0,-378.0,966.0,141093.0,141093.0
527.0,-2337.0,-367.0,964.0,141096.0,141096.0
528.0,-2349.0,-348.0,940.0,140517.0,140517.0
529.0,-2349.0,-340.0,942.0,140413.0,140413.0
530.0,-2343.0,-338.0,956.0,140489.0,140489.0
531.0,-2330.0,-324.0,914.0,140841.0,140841.0
532.0,-2336.0,-310.0,914.0,140906.0,140906.0
533.0,-2344.0,-313.0,903.0,140622.0,140622.0
534.0,-2353.0,-279.0,911.0,142241.0,142241.0
535.0,-2350.0,-296.0,924.0,142847.0,142847.0
536.0,-2350.0,-298.0,934.0,145228.0,145228.0
537.0,-2391.0,-292.0,909.0,139655.0,139655.0
538.0,-2392.0,-286.0,915.0,139043.0,139043.0
539.0,-2392.0,-296.0,911.0,139008.0,139008.0
540.0,-2350.0,-292.0,908.0,140674.0,140674.0
541.0,-2345.0,-300.0,918.0,140883.0,140883.0
542.0,-2350.0,-296.0,906.0,141199.0,141199.0
543.0,-2357.0,-308.0,911.0,141816.0,141816.0
544.0,-2353.0,-318.0,896.0,141792.0,141792.0
545.0,-2370.0,-315.0,898.0,141523.0,141523.0
546.0,-2331.0,-306.0,913.0,142754.0,142754.0
547.0,-2333.0,-300.0,900.0,142617.0,142617.0
548.0,-2345.0,-282.0,904.0,142545.0,142545.0
549.0,-2382.0,-306.0,902.0,144361.0,144361.0
550.0,-2389.0,-296.0,894.0,144399.0,144399.0
551.0,-2392.0,-302.0,894.0,144925.0,144925.0
552.0,-2394.0,-315.0,890.0,145836.0,145836.0
553.0,-2395.0,-298.0,888.0,146021.0,146021.0
554.0,-2400.0,-292.0,906.0,146121.0,146121.0
555.0,-2381.0,-319.0,928.0,142583.0,142583.0
556.0,-2390.0,-310.0,922.0,142406.0,142406.0
557.0,-2388.0,-321.0,928.0,141904.0,141904.0
558.0,-2357.0,-330.0,917.0,141299.0,141299.0
559.0,-2354.0,-328.0,922.0,140924.0,140924.0
560.0,-2352.0,-334.0,920.0,140705.0,140705.0
561.0,-2331.0,-319.0,934.0,140461.0,140461.0
562.0,-2336.0,-319.0,919.0,140356.0,140356.0
563.0,-2343.0,-302.0,920.0,140596.0,140596.0
564.0,-2341.0,-298.0,905.0,141029.0,141029.0
565.0,-2352.0,-294.0,906.0,141216.0,141216.0
566.0,-2376.0,-292.0,900.0,141818.0,141818.0
567.0,-2343.0,-306.0,902.0,141665.0,141665.0
568.0,-2352.0,-306.0,894.0,141443.0,141443.0
569.0,-2347.0,-306.0,896.0,141167.0,141167.0
570.0,-2356.0,-308.0,913.0,141193.0,141193.0
571.0,-2347.0,-306.0,918.0,141043.0,141043.0
572.0,-2359.0,-302.0,926.0,141231.0,141231.0
573.0,-2368.0,-302.0,913.0,141268.0,141268.0
574.0,-2355.0,-306.0,902.0,141621.0,141621.0
575.0,-2364.0,-298.0,900.0,141616.0,141616.0
576.0,-2353.0,-298.0,909.0,141780.0,141780.0
577.0,-2362.0,-298.0,934.0,141957.0,141957.0
578.0,-2364.0,-294.0,922.0,141793.0,141793.0
579.0,-2352.0,-298.0,896.0,142161.0,142161.0
580.0,-2356.0,-290.0,909.0,141811.0,141811.0
581.0,-2356.0,-281.0,918.0,141551.0,141551.0
582.0,-2354.0,-274.0,926.0,141016.0,141016.0
583.0,-2354.0,-274.0,926.0,140739.0,140739.0
584.0,-2359.0,-279.0,918.0,140859.0,140859.0
585.0,-2376.0,-288.0,918.0,140778.0,140778.0
586.0,-2364.0,-294.0,911.0,141000.0,141000.0
587.0,-2361.0,-276.0,926.0,141028.0,141028.0
588.0,-2352.0,-300.0,913.0,150176.0,150176.0
589.0,-2347.0,-288.0,911.0,149783.0,149783.0
590.0,-2345.0,-294.0,894.0,146099.0,146099.0
591.0,-2350.0,-284.0,890.0,143194.0,143194.0
592.0,-2349.0,-298.0,888.0,140838.0,140838.0
593.0,-2352.0,-298.0,868.0,139568.0,139568.0
594.0,-2361.0,-308.0,884.0,139000.0,139000.0
595.0,-2364.0,-290.0,870.0,138863.0,138863.0
596.0,-2357.0,-302.0,884.0,138726.0,138726.0
597.0,-2363.0,-304.0,894.0,138293.0,138293.0
598.0,-2371.0,-306.0,914.0,138282.0,138282.0
599.0,-2367.0,-312.0,911.0,139101.0,139101.0
600.0,-2364.0,-309.0,913.0,140116.0,140116.0
601.0,-2361.0,-310.0,913.0,140636.0,140636.0
602.0,-2359.0,-317.0,924.0,140704.0,140704.0
603.0,-2371.0,-326.0,926.0,140664.0,140664.0
604.0,-2358.0,-319.0,932.0,140922.0,140922.0
605.0,-2363.0,-319.0,932.0,141299.0,141299.0
606.0,-2356.0,-318.0,928.0,141415.0,141415.0
607.0,-2345.0,-314.0,930.0,141257.0,141257.0
608.0,-2350.0,-314.0,922.0,141130.0,141130.0
609.0,-2352.0,-315.0,927.0,141394.0,141394.0
610.0,-2342.0,-312.0,921.0,141722.0,141722.0
611.0,-2347.0,-317.0,930.0,141761.0,141761.0
612.0,-2354.0,-330.0,917.0,141613.0,141613.0
613.0,-2350.0,-326.0,932.0,141540.0,141540.0
614.0,-2359.0,-315.0,944.0,141804.0,141804.0
615.0,-2357.0,-321.0,934.0,142154.0,142154.0
616.0,-2352.0,-304.0,926.0,142251.0,142251.0
617.0,-2345.0,-315.0,917.0,142083.0,142083.0
618.0,-2357.0,-320.0,930.0,141993.0,141993.0
619.0,-2362.0,-317.0,933.0,142161.0,142161.0
620.0,-2361.0,-314.0,924.0,142469.0,142469.0
621.0,-2371.0,-321.0,904.0,142642.0,142642.0
622.0,-2367.0,-304.0,918.0,142594.0,142594.0
623.0,-2358.0,-319.0,918.0,142569.0,142569.0
624.0,-2362.0,-318.0,920.0,142888.0,142888.0
625.0,-2352.0,-308.0,916.0,143281.0,143281.0
626.0,-2345.0,-314.0,915.0,143428.0,143428.0
627.0,-2346.0,-311.0,930.0,143254.0,143254.0
628.0,-2355.0,-315.0,926.0,143144.0,143144.0
629.0,-2356.0,-312.0,942.0,143372.0,143372.0
630.0,-2351.0,-311.0,928.0,143708.0,143708.0
631.0,-2362.0,-317.0,960.0,143890.0,143890.0
632.0,-2364.0,-317.0,940.0,143759.0,143759.0
633.0,-2360.0,-319.0,954.0,143756.0,143756.0
634.0,-2359.0,-305.0,938.0,144096.0,144096.0
635.0,-2366.0,-304.0,930.0,144457.0,144457.0
636.0,-2372.0,-315.0,940.0,144661.0,144661.0
637.0,-2367.0,-325.0,934.0,144643.0,144643.0
638.0,-2361.0,-314.0,920.0,144646.0,144646.0
639.0,-2376.0,-304.0,911.0,144933.0,144933.0
640.0,-2355.0,-313.0,930.0,145448.0,145448.0
641.0,-2355.0,-316.0,914.0,145729.0,145729.0
642.0,-2368.0,-310.0,907.0,145789.0,145789.0
643.0,-2359.0,-315.0,904.0,145871.0,145871.0
644.0,-2364.0,-322.0,904.0,146163.0,146163.0
645.0,-2356.0,-312.0,917.0,146659.0,146659.0
646.0,-2352.0,-313.0,913.0,146919.0,146919.0
647.0,-2352.0,-310.0,915.0,146783.0,146783.0
648.0,-2349.0,-319.0,905.0,146763.0,146763.0
649.0,-2349.0,-308.0,913.0,147019.0,147019.0
650.0,-2352.0,-319.0,924.0,147293.0,147293.0
651.0,-2348.0,-317.0,905.0,147226.0,147226.0
652.0,-2352.0,-308.0,918.0,146764.0,146764.0
653.0,-2349.0,-321.0,924.0,146209.0,146209.0
654.0,-2359.0,-319.0,922.0,145926.0,145926.0
655.0,-2354.0,-319.0,898.0,145754.0,145754.0
656.0,-2352.0,-315.0,897.0,145379.0,145379.0
657.0,-2343.0,-296.0,928.0,144721.0,144721.0
658.0,-2350.0,-315.0,919.0,144078.0,144078.0
659.0,-2364.0,-302.0,913.0,143931.0,143931.0
660.0,-2362.0,-310.0,926.0,143922.0,143922.0
661.0,-2358.0,-300.0,909.0,143641.0,143641.0
662.0,-2356.0,-314.0,915.0,143137.0,143137.0
663.0,-2366.0,-308.0,915.0,142689.0,142689.0
664.0,-2359.0,-304.0,926.0,142604.0,142604.0
665.0,-2358.0,-296.0,919.0,142714.0,142714.0
666.0,-2359.0,-313.0,917.0,142636.0,142636.0
667.0,-2362.0,-306.0,916.0,142349.0,142349.0
668.0,-2355.0,-321.0,919.0,142092.0,142092.0
669.0,-2367.0,-324.0,916.0,142090.0,142090.0
670.0,-2356.0,-312.0,902.0,142168.0,142168.0
671.0,-2355.0,-304.0,924.0,142093.0,142093.0
672.0,-2357.0,-309.0,920.0,141867.0,141867.0
673.0,-2362.0,-314.0,913.0,141633.0,141633.0
674.0,-2368.0,-316.0,900.0,141708.0,141708.0
675.0,-2357.0,-326.0,926.0,141919.0,141919.0
676.0,-2359.0,-324.0,922.0,141866.0,141866.0
677.0,-2365.0,-319.0,915.0,141565.0,141565.0
678.0,-2374.0,-318.0,918.0,141300.0,141300.0
679.0,-2376.0,-317.0,928.0,141419.0,141419.0
680.0,-2371.0,-318.0,928.0,141690.0,141690.0
681.0,-2365.0,-317.0,924.0,141703.0,141703.0
682.0,-2350.0,-325.0,927.0,141409.0,141409.0
683.0,-2347.0,-321.0,946.0,141231.0,141231.0
684.0,-2344.0,-314.0,920.0,141315.0,141315.0
685.0,-2360.0,-318.0,934.0,141573.0,141573.0
686.0,-2364.0,-328.0,938.0,141617.0,141617.0
687.0,-2364.0,-323.0,934.0,141357.0,141357.0
688.0,-2360.0,-321.0,924.0,141231.0,141231.0
689.0,-2365.0,-308.0,917.0,141438.0,141438.0
690.0,-2374.0,-318.0,913.0,141723.0,141723.0
691.0,-2366.0,-321.0,909.0,141756.0,141756.0
692.0,-2363.0,-302.0,892.0,141534.0,141534.0
693.0,-2368.0,-317.0,894.0,141321.0,141321.0
694.0,-2362.0,-315.0,909.0,141419.0,141419.0
695.0,-2359.0,-302.0,903.0,141676.0,141676.0
696.0,-2352.0,-319.0,914.0,141705.0,141705.0
697.0,-2343.0,-302.0,909.0,141551.0,141551.0
698.0,-2349.0,-320.0,930.0,141362.0,141362.0
699.0,-2355.0,-325.0,911.0,141474.0,141474.0
700.0,-2359.0,-313.0,916.0,141656.0,141656.0
701.0,-2346.0,-304.0,928.0,141557.0,141557.0
702.0,-2369.0,-310.0,922.0,141309.0,141309.0
703.0,-2362.0,-306.0,916.0,141032.0,141032.0
704.0,-2363.0,-308.0,916.0,141111.0,141111.0
705.0,-2362.0,-315.0,923.0,141400.0,141400.0
706.0,-2352.0,-308.0,913.0,141408.0,141408.0
707.0,-2352.0,-318.0,915.0,141165.0,141165.0
708.0,-2358.0,-298.0,918.0,141003.0,141003.0
709.0,-2348.0,-296.0,933.0,141113.0,141113.0
710.0,-2360.0,-302.0,926.0,141389.0,141389.0
711.0,-2352.0,-298.0,928.0,141426.0,141426.0
712.0,-2352.0,-298.0,913.0,141138.0,141138.0
713.0,-2362.0,-310.0,934.0,140991.0,140991.0
714.0,-2360.0,-290.0,950.0,141132.0,141132.0
715.0,-2364.0,-306.0,914.0,141348.0,141348.0
716.0,-2367.0,-298.0,913.0,141406.0,141406.0
717.0,-2357.0,-306.0,915.0,141196.0,141196.0
718.0,-2356.0,-308.0,926.0,140956.0,140956.0
719.0,-2361.0,-302.0,921.0,141009.0,141009.0
720.0,-2350.0,-294.0,919.0,141194.0,141194.0
721.0,-2352.0,-307.0,928.0,141230.0,141230.0
722.0,-2354.0,-294.0,917.0,141054.0,141054.0
723.0,-2352.0,-296.0,934.0,140859.0,140859.0
724.0,-2361.0,-300.0,916.0,140954.0,140954.0
725.0,-2347.0,-313.0,926.0,141258.0,141258.0
726.0,-2353.0,-304.0,940.0,141276.0,141276.0
727.0,-2355.0,-298.0,927.0,141029.0,141029.0
728.0,-2356.0,-310.0,938.0,140845.0,140845.0
729.0,-2359.0,-323.0,934.0,140929.0,140929.0
730.0,-2357.0,-306.0,908.0,141152.0,141152.0
731.0,-2374.0,-308.0,913.0,141216.0,141216.0
732.0,-2369.0,-319.0,926.0,140998.0,140998.0
733.0,-2378.0,-306.0,924.0,140876.0,140876.0
734.0,-2359.0,-306.0,916.0,141027.0,141027.0
735.0,-2362.0,-306.0,918.0,141291.0,141291.0
736.0,-2361.0,-308.0,913.0,141405.0,141405.0
737.0,-2367.0,-304.0,904.0,141151.0,141151.0
738.0,-2351.0,-304.0,920.0,140978.0,140978.0
739.0,-2343.0,-296.0,922.0,141151.0,141151.0
740.0,-2350.0,-306.0,908.0,141427.0,141427.0
741.0,-2339.0,-308.0,917.0,141392.0,141392.0
742.0,-2352.0,-306.0,909.0,141102.0,141102.0
743.0,-2345.0,-306.0,909.0,140918.0,140918.0
744.0,-2349.0,-304.0,930.0,141070.0,141070.0
745.0,-2347.0,-302.0,913.0,141334.0,141334.0
746.0,-2350.0,-290.0,916.0,141390.0,141390.0
747.0,-2342.0,-300.0,924.0,141186.0,141186.0
748.0,-2358.0,-280.0,916.0,140997.0,140997.0
749.0,-2365.0,-298.0,922.0,141068.0,141068.0
750.0,-2359.0,-296.0,936.0,141263.0,141263.0
751.0,-2365.0,-288.0,920.0,141394.0,141394.0
752.0,-2369.0,-294.0,924.0,141353.0,141353.0
753.0,-2359.0,-286.0,922.0,141395.0,141395.0
754.0,-2375.0,-279.0,922.0,141687.0,141687.0
755.0,-2369.0,-288.0,919.0,142032.0,142032.0
756.0,-2376.0,-278.0,911.0,142051.0,142051.0
757.0,-2364.0,-296.0,928.0,141889.0,141889.0
758.0,-2364.0,-290.0,920.0,141967.0,141967.0
759.0,-2386.0,-290.0,916.0,142363.0,142363.0
760.0,-2375.0,-296.0,914.0,142624.0,142624.0
761.0,-2374.0,-290.0,918.0,142554.0,142554.0
762.0,-2381.0,-296.0,926.0,142142.0,142142.0
763.0,-2363.0,-294.0,925.0,141778.0,141778.0
764.0,-2378.0,-298.0,909.0,141679.0,141679.0
765.0,-2367.0,-298.0,918.0,141801.0,141801.0
766.0,-2364.0,-302.0,909.0,141788.0,141788.0
767.0,-2359.0,-313.0,934.0,141631.0,141631.0
768.0,-2364.0,-306.0,906.0,141258.0,141258.0
769.0,-2353.0,-302.0,929.0,141181.0,141181.0
770.0,-2352.0,-310.0,926.0,141409.0,141409.0
771.0,-2355.0,-308.0,920.0,141468.0,141468.0
772.0,-2356.0,-306.0,904.0,141261.0,141261.0
773.0,-2355.0,-300.0,925.0,140896.0,140896.0
774.0,-2376.0,-314.0,922.0,140769.0,140769.0
775.0,-2352.0,-312.0,922.0,140989.0,140989.0
776.0,-2345.0,-315.0,922.0,141009.0,141009.0
777.0,-2351.0,-321.0,916.0,140746.0,140746.0
778.0,-2344.0,-322.0,908.0,140584.0,140584.0
779.0,-2352.0,-326.0,928.0,140699.0,140699.0
780.0,-2356.0,-325.0,934.0,140934.0,140934.0
781.0,-2352.0,-323.0,914.0,140965.0,140965.0
782.0,-2354.0,-318.0,928.0,140674.0,140674.0
783.0,-2352.0,-330.0,918.0,140444.0,140444.0
784.0,-2359.0,-318.0,917.0,140565.0,140565.0
785.0,-2352.0,-332.0,924.0,140715.0,140715.0
786.0,-2364.0,-312.0,922.0,140709.0,140709.0
787.0,-2347.0,-319.0,924.0,140587.0,140587.0
788.0,-2345.0,-312.0,920.0,140381.0,140381.0
789.0,-2351.0,-310.0,936.0,140445.0,140445.0
790.0,-2362.0,-310.0,932.0,140650.0,140650.0
791.0,-2364.0,-296.0,927.0,140314.0,140314.0
792.0,-2357.0,-313.0,927.0,139844.0,139844.0
793.0,-2360.0,-298.0,926.0,140132.0,140132.0
794.0,-2359.0,-310.0,922.0,141215.0,141215.0
795.0,-2352.0,-306.0,916.0,142050.0,142050.0
796.0,-2354.0,-300.0,928.0,142784.0,142784.0
797.0,-2352.0,-294.0,911.0,144449.0,144449.0
798.0,-2357.0,-302.0,934.0,147617.0,147617.0
799.0,-2345.0,-306.0,909.0,149971.0,149971.0
800.0,-2356.0,-306.0,905.0,151714.0,151714.0
801.0,-2366.0,-304.0,896.0,151554.0,151554.0
802.0,-2354.0,-306.0,909.0,147251.0,147251.0
803.0,-2346.0,-298.0,915.0,143788.0,143788.0
804.0,-2354.0,-304.0,916.0,141831.0,141831.0
805.0,-2356.0,-300.0,919.0,140806.0,140806.0
806.0,-2350.0,-288.0,928.0,140036.0,140036.0
807.0,-2352.0,-290.0,938.0,139290.0,139290.0
808.0,-2365.0,-288.0,926.0,138782.0,138782.0
809.0,-2364.0,-296.0,920.0,138608.0,138608.0
810.0,-2376.0,-302.0,928.0,139066.0,139066.0
811.0,-2371.0,-298.0,954.0,139703.0,139703.0
812.0,-2369.0,-296.0,915.0,140210.0,140210.0
813.0,-2372.0,-296.0,934.0,140628.0,140628.0
814.0,-2369.0,-300.0,913.0,141079.0,141079.0
815.0,-2358.0,-300.0,926.0,141404.0,141404.0
816.0,-2348.0,-298.0,913.0,141476.0,141476.0
817.0,-2357.0,-308.0,913.0,141294.0,141294.0
818.0,-2367.0,-306.0,917.0,141188.0,141188.0
819.0,-2356.0,-298.0,922.0,141388.0,141388.0
820.0,-2355.0,-300.0,905.0,141812.0,141812.0
821.0,-2356.0,-296.0,917.0,142007.0,142007.0
822.0,-2356.0,-300.0,911.0,141834.0,141834.0
823.0,-2350.0,-296.0,926.0,141704.0,141704.0
824.0,-2342.0,-284.0,918.0,141909.0,141909.0
825.0,-2340.0,-292.0,928.0,142211.0,142211.0
826.0,-2332.0,-300.0,946.0,142310.0,142310.0
827.0,-2349.0,-300.0,932.0,142150.0,142150.0
828.0,-2357.0,-298.0,926.0,142028.0,142028.0
829.0,-2364.0,-300.0,934.0,142272.0,142272.0
830.0,-2361.0,-298.0,916.0,142594.0,142594.0
831.0,-2364.0,-308.0,914.0,142725.0,142725.0
832.0,-2378.0,-304.0,916.0,142633.0,142633.0
833.0,-2369.0,-304.0,900.0,142492.0,142492.0
834.0,-2368.0,-308.0,896.0,142628.0,142628.0
835.0,-2367.0,-304.0,896.0,143016.0,143016.0
836.0,-2359.0,-310.0,900.0,143200.0,143200.0
837.0,-2345.0,-312.0,904.0,143101.0,143101.0
838.0,-2356.0,-314.0,906.0,142968.0,142968.0
839.0,-2343.0,-298.0,922.0,143129.0,143129.0
840.0,-2348.0,-321.0,930.0,143482.0,143482.0
841.0,-2348.0,-306.0,924.0,143591.0,143591.0
842.0,-2351.0,-302.0,944.0,143327.0,143327.0
843.0,-2352.0,-312.0,948.0,143188.0,143188.0
844.0,-2355.0,-306.0,928.0,143394.0,143394.0
845.0,-2365.0,-303.0,924.0,143783.0,143783.0
846.0,-2355.0,-306.0,938.0,143961.0,143961.0
847.0,-2364.0,-304.0,911.0,143886.0,143886.0
848.0,-2355.0,-296.0,918.0,143876.0,143876.0
849.0,-2362.0,-302.0,926.0,144131.0,144131.0
850.0,-2366.0,-300.0,923.0,144630.0,144630.0
851.0,-2350.0,-306.0,917.0,144905.0,144905.0
852.0,-2362.0,-302.0,920.0,144914.0,144914.0
853.0,-2365.0,-300.0,922.0,144980.0,144980.0
854.0,-2360.0,-300.0,911.0,145368.0,145368.0
855.0,-2364.0,-304.0,913.0,145938.0,145938.0
856.0,-2359.0,-306.0,911.0,146244.0,146244.0
857.0,-2366.0,-308.0,930.0,146291.0,146291.0
858.0,-2373.0,-314.0,930.0,146345.0,146345.0
859.0,-2357.0,-296.0,917.0,146609.0,146609.0
860.0,-2357.0,-308.0,934.0,147045.0,147045.0
861.0,-2362.0,-286.0,917.0,147244.0,147244.0
862.0,-2363.0,-306.0,909.0,147021.0,147021.0
863.0,-2355.0,-308.0,920.0,146774.0,146774.0
864.0,-2341.0,-304.0,915.0,146717.0,146717.0
865.0,-2352.0,-306.0,930.0,146680.0,146680.0
866.0,-2354.0,-304.0,944.0,146349.0,146349.0
867.0,-2359.0,-300.0,911.0,145713.0,145713.0
868.0,-2355.0,-302.0,924.0,145040.0,145040.0
869.0,-2355.0,-300.0,922.0,144733.0,144733.0
870.0,-2352.0,-312.0,928.0,144591.0,144591.0
871.0,-2347.0,-300.0,932.0,144219.0,144219.0
872.0,-2356.0,-302.0,922.0,143698.0,143698.0
873.0,-2360.0,-308.0,917.0,143244.0,143244.0
874.0,-2359.0,-302.0,918.0,143128.0,143128.0
875.0,-2355.0,-310.0,918.0,143212.0,143212.0
876.0,-2357.0,-312.0,928.0,143084.0,143084.0
877.0,-2351.0,-317.0,913.0,142658.0,142658.0
878.0,-2345.0,-313.0,926.0,142297.0,142297.0
879.0,-2348.0,-317.0,934.0,142297.0,142297.0
880.0,-2352.0,-318.0,916.0,142416.0,142416.0
881.0,-2356.0,-309.0,911.0,142346.0,142346.0
882.0,-2355.0,-312.0,920.0,142066.0,142066.0
883.0,-2359.0,-300.0,924.0,141813.0,141813.0
884.0,-2354.0,-300.0,917.0,141813.0,141813.0
885.0,-2352.0,-314.0,916.0,142013.0,142013.0
886.0,-2352.0,-302.0,918.0,141998.0,141998.0
887.0,-2355.0,-308.0,907.0,141701.0,141701.0
888.0,-2363.0,-306.0,913.0,141444.0,141444.0
889.0,-2352.0,-300.0,911.0,141505.0,141505.0
890.0,-2352.0,-306.0,917.0,141684.0,141684.0
891.0,-2351.0,-308.0,917.0,141676.0,141676.0
892.0,-2351.0,-305.0,922.0,141421.0,141421.0
893.0,-2348.0,-310.0,922.0,141161.0,141161.0
894.0,-2348.0,-298.0,938.0,141176.0,141176.0
895.0,-2340.0,-296.0,966.0,141351.0,141351.0
896.0,-2345.0,-310.0,944.0,141394.0,141394.0
897.0,-2349.0,-313.0,954.0,141189.0,141189.0
898.0,-2354.0,-302.0,950.0,140954.0,140954.0
899.0,-2349.0,-313.0,944.0,141126.0,141126.0
900.0,-2371.0,-306.0,924.0,141431.0,141431.0
901.0,-2368.0,-326.0,934.0,141533.0,141533.0
902.0,-2378.0,-318.0,918.0,141366.0,141366.0
903.0,-2369.0,-313.0,915.0,141157.0,141157.0
904.0,-2364.0,-308.0,922.0,141218.0,141218.0
905.0,-2360.0,-296.0,928.0,141514.0,141514.0
906.0,-2350.0,-302.0,922.0,141636.0,141636.0
907.0,-2357.0,-304.0,924.0,141404.0,141404.0
908.0,-2343.0,-310.0,920.0,141224.0,141224.0
909.0,-2338.0,-311.0,924.0,141264.0,141264.0
910.0,-2348.0,-302.0,920.0,141513.0,141513.0
911.0,-2347.0,-314.0,918.0,141538.0,141538.0
912.0,-2369.0,-319.0,914.0,141311.0,141311.0
913.0,-2357.0,-313.0,915.0,141097.0,141097.0
914.0,-2354.0,-314.0,906.0,141166.0,141166.0
915.0,-2355.0,-304.0,928.0,141361.0,141361.0
916.0,-2359.0,-310.0,913.0,141455.0,141455.0
917.0,-2356.0,-300.0,924.0,141270.0,141270.0
918.0,-2356.0,-302.0,917.0,141090.0,141090.0
919.0,-2365.0,-298.0,922.0,141236.0,141236.0
920.0,-2357.0,-308.0,913.0,141496.0,141496.0
921.0,-2367.0,-296.0,928.0,141573.0,141573.0
922.0,-2353.0,-308.0,926.0,141335.0,141335.0
923.0,-2360.0,-298.0,918.0,141100.0,141100.0
924.0,-2357.0,-308.0,920.0,141241.0,141241.0
925.0,-2354.0,-292.0,918.0,141503.0,141503.0
926.0,-2368.0,-286.0,926.0,141501.0,141501.0
927.0,-2362.0,-300.0,924.0,141305.0,141305.0
928.0,-2357.0,-296.0,926.0,141098.0,141098.0
929.0,-2359.0,-292.0,916.0,141164.0,141164.0
930.0,-2369.0,-294.0,922.0,141463.0,141463.0
931.0,-2359.0,-284.0,918.0,141451.0,141451.0
932.0,-2357.0,-290.0,926.0,141138.0,141138.0
933.0,-2360.0,-279.0,932.0,140916.0,140916.0
934.0,-2364.0,-290.0,905.0,141033.0,141033.0
935.0,-2364.0,-294.0,915.0,141299.0,141299.0
936.0,-2357.0,-284.0,926.0,141333.0,141333.0
937.0,-2352.0,-286.0,919.0,141154.0,141154.0
938.0,-2361.0,-290.0,915.0,140916.0,140916.0
939.0,-2364.0,-279.0,926.0,140953.0,140953.0
940.0,-2370.0,-294.0,909.0,141174.0,141174.0
941.0,-2371.0,-292.0,906.0,141201.0,141201.0
942.0,-2373.0,-296.0,909.0,141017.0,141017.0
943.0,-2366.0,-284.0,907.0,140837.0,140837.0
944.0,-2375.0,-280.0,916.0,140944.0,140944.0
945.0,-2362.0,-298.0,909.0,141224.0,141224.0
946.0,-2360.0,-296.0,913.0,141271.0,141271.0
947.0,-2369.0,-304.0,916.0,141052.0,141052.0
948.0,-2369.0,-292.0,913.0,140840.0,140840.0
949.0,-2361.0,-302.0,915.0,140945.0,140945.0
950.0,-2364.0,-300.0,902.0,141256.0,141256.0
951.0,-2359.0,-292.0,916.0,141293.0,141293.0
952.0,-2366.0,-304.0,907.0,141038.0,141038.0
953.0,-2362.0,-304.0,924.0,140808.0,140808.0
954.0,-2360.0,-308.0,915.0,140914.0,140914.0
955.0,-2364.0,-302.0,898.0,141140.0,141140.0
956.0,-2353.0,-306.0,942.0,141151.0,141151.0
957.0,-2357.0,-318.0,920.0,140939.0,140939.0
958.0,-2354.0,-306.0,920.0,140739.0,140739.0
959.0,-2351.0,-306.0,904.0,140788.0,140788.0
960.0,-2359.0,-312.0,915.0,141011.0,141011.0
961.0,-2348.0,-306.0,900.0,141029.0,141029.0
962.0,-2364.0,-319.0,915.0,140778.0,140778.0
963.0,-2356.0,-314.0,906.0,140613.0,140613.0
964.0,-2362.0,-308.0,919.0,140760.0,140760.0
965.0,-2354.0,-306.0,911.0,140990.0,140990.0
966.0,-2359.0,-307.0,936.0,141198.0,141198.0
967.0,-2359.0,-321.0,940.0,141199.0,141199.0
968.0,-2359.0,-312.0,918.0,141085.0,141085.0
969.0,-2356.0,-313.0,908.0,141235.0,141235.0
970.0,-2361.0,-306.0,916.0,141626.0,141626.0
971.0,-2352.0,-306.0,913.0,141688.0,141688.0
972.0,-2361.0,-302.0,907.0,141557.0,141557.0
973.0,-2355.0,-302.0,908.0,141508.0,141508.0
974.0,-2357.0,-300.0,922.0,141778.0,141778.0
975.0,-2357.0,-308.0,907.0,142001.0,142001.0
976.0,-2364.0,-292.0,908.0,141963.0,141963.0
977.0,-2357.0,-290.0,899.0,141591.0,141591.0
978.0,-2356.0,-298.0,914.0,141228.0,141228.0
979.0,-2350.0,-302.0,909.0,141139.0,141139.0
980.0,-2360.0,-304.0,913.0,141267.0,141267.0
981.0,-2354.0,-292.0,911.0,141374.0,141374.0
982.0,-2355.0,-306.0,906.0,141208.0,141208.0
983.0,-2354.0,-302.0,916.0,140811.0,140811.0
984.0,-2359.0,-292.0,913.0,140721.0,140721.0
985.0,-2369.0,-294.0,915.0,140986.0,140986.0
986.0,-2354.0,-300.0,920.0,141145.0,141145.0
987.0,-2364.0,-304.0,917.0,141008.0,141008.0
988.0,-2360.0,-300.0,913.0,140607.0,140607.0
989.0,-2357.0,-306.0,924.0,140489.0,140489.0
990.0,-2352.0,-300.0,928.0,140655.0,140655.0
991.0,-2368.0,-300.0,916.0,140745.0,140745.0
992.0,-2366.0,-294.0,915.0,140558.0,140558.0
993.0,-2362.0,-304.0,920.0,140263.0,140263.0
994.0,-2363.0,-304.0,918.0,140409.0,140409.0
995.0,-2359.0,-302.0,922.0,140704.0,140704.0
996.0,-2356.0,-302.0,914.0,140750.0,140750.0
997.0,-2352.0,-306.0,898.0,140499.0,140499.0
998.0,-2364.0,-300.0,913.0,140300.0,140300.0
999.0,-2355.0,-304.0,911.0,140394.0,140394.0
1000.0,-2356.0,-304.0,905.0,140711.0,140711.0
1001.0,-2359.0,-302.0,918.0,140816.0,140816.0
1002.0,-2367.0,-308.0,918.0,140564.0,140564.0
1003.0,-2345.0,-318.0,920.0,140365.0,140365.0
1004.0,-2358.0,-304.0,915.0,140466.0,140466.0
1005.0,-2346.0,-313.0,911.0,140609.0,140609.0
1006.0,-2356.0,-304.0,924.0,140303.0,140303.0
1007.0,-2357.0,-296.0,916.0,139820.0,139820.0
1008.0,-2357.0,-304.0,932.0,140158.0,140158.0
1009.0,-2365.0,-304.0,938.0,141133.0,141133.0
1010.0,-2364.0,-310.0,923.0,141896.0,141896.0
1011.0,-2360.0,-309.0,926.0,142581.0,142581.0
1012.0,-2356.0,-302.0,913.0,144263.0,144263.0
1013.0,-2354.0,-310.0,915.0,147405.0,147405.0
1014.0,-2356.0,-306.0,907.0,149706.0,149706.0
1015.0,-2356.0,-300.0,919.0,151559.0,151559.0
1016.0,-2357.0,-300.0,917.0,151383.0,151383.0
1017.0,-2357.0,-304.0,920.0,147166.0,147166.0
1018.0,-2361.0,-292.0,918.0,143794.0,143794.0
1019.0,-2352.0,-310.0,911.0,141773.0,141773.0
1020.0,-2363.0,-290.0,915.0,140684.0,140684.0
1021.0,-2361.0,-311.0,909.0,139888.0,139888.0
1022.0,-2364.0,-308.0,907.0,139107.0,139107.0
1023.0,-2372.0,-294.0,905.0,138589.0,138589.0
1024.0,-2376.0,-315.0,915.0,138291.0,138291.0
1025.0,-2371.0,-310.0,919.0,138638.0,138638.0
1026.0,-2376.0,-302.0,916.0,139238.0,139238.0
1027.0,-2374.0,-306.0,911.0,139794.0,139794.0
1028.0,-2364.0,-304.0,911.0,140190.0,140190.0
1029.0,-2369.0,-298.0,913.0,140575.0,140575.0
1030.0,-2352.0,-292.0,909.0,140915.0,140915.0
1031.0,-2356.0,-298.0,924.0,141054.0,141054.0
1032.0,-2340.0,-302.0,928.0,140941.0,140941.0
1033.0,-2352.0,-302.0,915.0,140848.0,140848.0
1034.0,-2367.0,-294.0,911.0,141043.0,141043.0
1035.0,-2366.0,-290.0,908.0,141446.0,141446.0
1036.0,-2350.0,-294.0,909.0,141586.0,141586.0
1037.0,-2346.0,-283.0,905.0,141464.0,141464.0
1038.0,-2345.0,-300.0,913.0,141304.0,141304.0
1039.0,-2336.0,-290.0,909.0,141363.0,141363.0
1040.0,-2336.0,-290.0,934.0,141753.0,141753.0
1041.0,-2346.0,-292.0,924.0,141898.0,141898.0
1042.0,-2348.0,-298.0,918.0,141720.0,141720.0
1043.0,-2368.0,-298.0,918.0,141533.0,141533.0
1044.0,-2378.0,-296.0,926.0,141651.0,141651.0
1045.0,-2372.0,-296.0,930.0,142000.0,142000.0
1046.0,-2367.0,-298.0,894.0,142181.0,142181.0
1047.0,-2380.0,-308.0,906.0,142081.0,142081.0
1048.0,-2385.0,-315.0,882.0,141971.0,141971.0
1049.0,-2374.0,-298.0,892.0,142136.0,142136.0
1050.0,-2373.0,-296.0,888.0,142449.0,142449.0
1051.0,-2369.0,-302.0,884.0,142697.0,142697.0
1052.0,-2354.0,-302.0,904.0,142667.0,142667.0
1053.0,-2345.0,-319.0,896.0,142539.0,142539.0
1054.0,-2355.0,-312.0,907.0,142669.0,142669.0
1055.0,-2361.0,-306.0,915.0,142945.0,142945.0
1056.0,-2360.0,-302.0,920.0,143116.0,143116.0
1057.0,-2356.0,-298.0,913.0,142994.0,142994.0
1058.0,-2359.0,-314.0,942.0,142807.0,142807.0
1059.0,-2362.0,-300.0,934.0,142951.0,142951.0
1060.0,-2352.0,-304.0,904.0,143359.0,143359.0
1061.0,-2362.0,-304.0,918.0,143594.0,143594.0
1062.0,-2364.0,-309.0,922.0,143496.0,143496.0
1063.0,-2365.0,-304.0,914.0,143481.0,143481.0
1064.0,-2357.0,-302.0,905.0,143724.0,143724.0
1065.0,-2369.0,-300.0,909.0,144118.0,144118.0
1066.0,-2359.0,-300.0,904.0,144373.0,144373.0
1067.0,-2357.0,-306.0,909.0,144483.0,144483.0
1068.0,-2352.0,-308.0,913.0,144564.0,144564.0
1069.0,-2357.0,-302.0,898.0,144828.0,144828.0
1070.0,-2362.0,-302.0,924.0,145322.0,145322.0
1071.0,-2369.0,-294.0,906.0,145679.0,145679.0
1072.0,-2366.0,-298.0,913.0,145652.0,145652.0
1073.0,-2367.0,-296.0,911.0,145688.0,145688.0
1074.0,-2368.0,-304.0,920.0,146001.0,146001.0
1075.0,-2362.0,-304.0,918.0,146480.0,146480.0
1076.0,-2362.0,-302.0,920.0,146655.0,146655.0
1077.0,-2350.0,-310.0,918.0,146466.0,146466.0
1078.0,-2357.0,-306.0,917.0,146168.0,146168.0
1079.0,-2349.0,-306.0,915.0,146041.0,146041.0
1080.0,-2359.0,-308.0,909.0,146015.0,146015.0
1081.0,-2360.0,-308.0,909.0,145738.0,145738.0
1082.0,-2359.0,-306.0,922.0,145187.0,145187.0
1083.0,-2362.0,-304.0,940.0,144534.0,144534.0
1084.0,-2361.0,-292.0,930.0,144193.0,144193.0
1085.0,-2360.0,-294.0,920.0,144118.0,144118.0
1086.0,-2359.0,-300.0,924.0,143862.0,143862.0
1087.0,-2359.0,-298.0,918.0,143328.0,143328.0
1088.0,-2351.0,-313.0,911.0,142855.0,142855.0
1089.0,-2369.0,-300.0,922.0,142695.0,142695.0
1090.0,-2355.0,-304.0,907.0,142734.0,142734.0
1091.0,-2357.0,-312.0,914.0,142660.0,142660.0
1092.0,-2348.0,-308.0,926.0,142336.0,142336.0
1093.0,-2350.0,-302.0,915.0,141956.0,141956.0
1094.0,-2357.0,-310.0,926.0,141922.0,141922.0
1095.0,-2346.0,-300.0,911.0,142094.0,142094.0
1096.0,-2350.0,-308.0,915.0,142133.0,142133.0
1097.0,-2357.0,-296.0,902.0,141839.0,141839.0
1098.0,-2347.0,-300.0,915.0,141491.0,141491.0
1099.0,-2353.0,-308.0,934.0,141489.0,141489.0
1100.0,-2345.0,-302.0,916.0,141770.0,141770.0
1101.0,-2358.0,-310.0,918.0,141797.0,141797.0
1102.0,-2360.0,-308.0,911.0,141570.0,141570.0
1103.0,-2367.0,-304.0,936.0,141288.0,141288.0
1104.0,-2359.0,-308.0,909.0,141258.0,141258.0
1105.0,-2369.0,-313.0,909.0,141454.0,141454.0
1106.0,-2364.0,-311.0,911.0,141481.0,141481.0
1107.0,-2361.0,-308.0,914.0,141239.0,141239.0
1108.0,-2362.0,-302.0,922.0,141014.0,141014.0
1109.0,-2360.0,-304.0,911.0,140993.0,140993.0
1110.0,-2360.0,-302.0,924.0,141222.0,141222.0
1111.0,-2366.0,-302.0,938.0,141302.0,141302.0
1112.0,-2355.0,-308.0,922.0,141093.0,141093.0
1113.0,-2364.0,-296.0,928.0,140811.0,140811.0
1114.0,-2374.0,-302.0,911.0,140934.0,140934.0
1115.0,-2364.0,-304.0,892.0,141331.0,141331.0
1116.0,-2383.0,-290.0,894.0,141487.0,141487.0
1117.0,-2372.0,-294.0,896.0,141254.0,141254.0
1118.0,-2361.0,-302.0,892.0,141074.0,141074.0
1119.0,-2364.0,-302.0,894.0,141134.0,141134.0
1120.0,-2364.0,-294.0,915.0,141375.0,141375.0
1121.0,-2347.0,-294.0,898.0,141435.0,141435.0
1122.0,-2349.0,-294.0,922.0,141258.0,141258.0
1123.0,-2349.0,-300.0,906.0,141029.0,141029.0
1124.0,-2359.0,-300.0,926.0,141079.0,141079.0
1125.0,-2352.0,-300.0,911.0,141288.0,141288.0
1126.0,-2347.0,-302.0,932.0,141392.0,141392.0
1127.0,-2347.0,-288.0,911.0,141191.0,141191.0
1128.0,-2358.0,-294.0,909.0,140869.0,140869.0
1129.0,-2356.0,-298.0,920.0,140884.0,140884.0
1130.0,-2356.0,-296.0,909.0,141082.0,141082.0
1131.0,-2362.0,-292.0,911.0,141169.0,141169.0
1132.0,-2365.0,-294.0,909.0,140990.0,140990.0
1133.0,-2359.0,-296.0,915.0,140748.0,140748.0
1134.0,-2350.0,-300.0,908.0,140768.0,140768.0
1135.0,-2360.0,-298.0,900.0,141036.0,141036.0
1136.0,-2366.0,-302.0,922.0,141119.0,141119.0
1137.0,-2363.0,-296.0,920.0,140949.0,140949.0
1138.0,-2364.0,-298.0,921.0,140730.0,140730.0
1139.0,-2360.0,-300.0,924.0,140751.0,140751.0
1140.0,-2361.0,-294.0,909.0,140911.0,140911.0
1141.0,-2363.0,-296.0,920.0,141038.0,141038.0
1142.0,-2361.0,-298.0,920.0,140891.0,140891.0
1143.0,-2362.0,-296.0,916.0,140678.0,140678.0
1144.0,-2367.0,-304.0,904.0,140726.0,140726.0
1145.0,-2370.0,-294.0,911.0,140974.0,140974.0
1146.0,-2366.0,-294.0,932.0,141106.0,141106.0
1147.0,-2359.0,-302.0,904.0,140878.0,140878.0
1148.0,-2371.0,-314.0,914.0,140614.0,140614.0
1149.0,-2361.0,-296.0,918.0,140670.0,140670.0
1150.0,-2356.0,-292.0,915.0,140939.0,140939.0
1151.0,-2359.0,-298.0,898.0,141021.0,141021.0
1152.0,-2350.0,-298.0,922.0,140854.0,140854.0
1153.0,-2354.0,-302.0,915.0,140633.0,140633.0
1154.0,-2356.0,-300.0,904.0,140693.0,140693.0
1155.0,-2357.0,-304.0,922.0,140985.0,140985.0
1156.0,-2359.0,-304.0,911.0,141062.0,141062.0
1157.0,-2369.0,-309.0,906.0,140844.0,140844.0
1158.0,-2368.0,-304.0,913.0,140566.0,140566.0
1159.0,-2358.0,-312.0,902.0,140605.0,140605.0
1160.0,-2367.0,-300.0,913.0,140846.0,140846.0
1161.0,-2359.0,-309.0,902.0,140980.0,140980.0
1162.0,-2354.0,-302.0,900.0,140779.0,140779.0
1163.0,-2359.0,-300.0,924.0,140596.0,140596.0
1164.0,-2353.0,-294.0,907.0,140613.0,140613.0
1165.0,-2364.0,-298.0,920.0,140901.0,140901.0
1166.0,-2367.0,-300.0,916.0,140961.0,140961.0
1167.0,-2348.0,-302.0,923.0,140796.0,140796.0
1168.0,-2361.0,-306.0,924.0,140519.0,140519.0
1169.0,-2359.0,-292.0,911.0,140590.0,140590.0
1170.0,-2362.0,-294.0,909.0,140894.0,140894.0
1171.0,-2354.0,-290.0,922.0,140990.0,140990.0
1172.0,-2369.0,-306.0,904.0,140794.0,140794.0
1173.0,-2364.0,-304.0,934.0,140581.0,140581.0
1174.0,-2367.0,-308.0,904.0,140643.0,140643.0
1175.0,-2349.0,-304.0,926.0,140904.0,140904.0
1176.0,-2364.0,-292.0,906.0,141078.0,141078.0
1177.0,-2357.0,-298.0,911.0,140981.0,140981.0
1178.0,-2368.0,-306.0,913.0,140836.0,140836.0
1179.0,-2373.0,-313.0,898.0,140941.0,140941.0
1180.0,-2367.0,-300.0,909.0,141324.0,141324.0
1181.0,-2369.0,-307.0,904.0,141612.0,141612.0
1182.0,-2364.0,-302.0,904.0,141472.0,141472.0
1183.0,-2360.0,-311.0,905.0,141261.0,141261.0
1184.0,-2364.0,-314.0,907.0,141358.0,141358.0
1185.0,-2369.0,-312.0,916.0,141746.0,141746.0
1186.0,-2362.0,-311.0,904.0,142089.0,142089.0
1187.0,-2362.0,-304.0,896.0,142124.0,142124.0
1188.0,-2359.0,-302.0,913.0,141814.0,141814.0
1189.0,-2357.0,-310.0,898.0,141646.0,141646.0
1190.0,-2359.0,-312.0,922.0,141778.0,141778.0
1191.0,-2368.0,-298.0,914.0,141796.0,141796.0
1192.0,-2361.0,-312.0,932.0,141526.0,141526.0
1193.0,-2352.0,-313.0,914.0,141187.0,141187.0
1194.0,-2363.0,-302.0,922.0,141175.0,141175.0
1195.0,-2355.0,-304.0,922.0,141381.0,141381.0
1196.0,-2354.0,-300.0,913.0,141293.0,141293.0
1197.0,-2361.0,-316.0,922.0,141018.0,141018.0
1198.0,-2365.0,-313.0,938.0,140873.0,140873.0
1199.0,-2348.0,-313.0,922.0,141018.0,141018.0
1200.0,-2371.0,-306.0,909.0,141244.0,141244.0
1201.0,-2352.0,-312.0,904.0,141061.0,141061.0
1202.0,-2365.0,-309.0,907.0,140633.0,140633.0
1203.0,-2355.0,-315.0,920.0,140303.0,140303.0
1204.0,-2366.0,-310.0,914.0,140380.0,140380.0
1205.0,-2367.0,-302.0,906.0,140631.0,140631.0
1206.0,-2365.0,-298.0,904.0,140727.0,140727.0
1207.0,-2361.0,-306.0,907.0,140524.0,140524.0
1208.0,-2364.0,-304.0,913.0,140262.0,140262.0
1209.0,-2367.0,-304.0,903.0,140307.0,140307.0
1210.0,-2362.0,-304.0,908.0,140566.0,140566.0
1211.0,-2362.0,-300.0,916.0,140668.0,140668.0
1212.0,-2356.0,-296.0,900.0,140481.0,140481.0
1213.0,-2367.0,-296.0,904.0,140248.0,140248.0
1214.0,-2367.0,-302.0,898.0,140259.0,140259.0
1215.0,-2350.0,-316.0,907.0,140458.0,140458.0
1216.0,-2348.0,-300.0,920.0,140623.0,140623.0
1217.0,-2368.0,-304.0,922.0,140436.0,140436.0
1218.0,-2364.0,-288.0,917.0,140005.0,140005.0
1219.0,-2364.0,-296.0,924.0,139641.0,139641.0
1220.0,-2357.0,-296.0,915.0,139897.0,139897.0
1221.0,-2362.0,-300.0,918.0,140831.0,140831.0
1222.0,-2355.0,-296.0,914.0,141364.0,141364.0
1223.0,-2366.0,-298.0,899.0,141434.0,141434.0
1224.0,-2359.0,-290.0,913.0,142276.0,142276.0
1225.0,-2359.0,-300.0,908.0,145156.0,145156.0
1226.0,-2364.0,-290.0,907.0,148663.0,148663.0
1227.0,-2367.0,-284.0,908.0,150445.0,150445.0
1228.0,-2372.0,-294.0,908.0,151653.0,151653.0
1229.0,-2364.0,-302.0,904.0,149679.0,149679.0
1230.0,-2370.0,-302.0,900.0,145901.0,145901.0
1231.0,-2370.0,-290.0,900.0,143474.0,143474.0
1232.0,-2357.0,-300.0,898.0,141520.0,141520.0
1233.0,-2362.0,-302.0,896.0,140194.0,140194.0
1234.0,-2359.0,-298.0,903.0,139536.0,139536.0
1235.0,-2360.0,-292.0,904.0,139389.0,139389.0
1236.0,-2359.0,-304.0,907.0,139139.0,139139.0
1237.0,-2364.0,-309.0,911.0,138756.0,138756.0
1238.0,-2369.0,-292.0,902.0,138664.0,138664.0
1239.0,-2373.0,-294.0,905.0,139197.0,139197.0
1240.0,-2383.0,-311.0,900.0,140188.0,140188.0
1241.0,-2359.0,-304.0,902.0,140910.0,140910.0
1242.0,-2361.0,-302.0,920.0,140901.0,140901.0
1243.0,-2360.0,-302.0,914.0,140721.0,140721.0
1244.0,-2350.0,-302.0,920.0,140880.0,140880.0
1245.0,-2357.0,-306.0,906.0,141206.0,141206.0
1246.0,-2352.0,-300.0,924.0,141358.0,141358.0
1247.0,-2359.0,-292.0,926.0,141228.0,141228.0
1248.0,-2355.0,-298.0,918.0,141139.0,141139.0
1249.0,-2362.0,-300.0,905.0,141263.0,141263.0
1250.0,-2354.0,-288.0,922.0,141602.0,141602.0
1251.0,-2343.0,-296.0,930.0,141763.0,141763.0
1252.0,-2350.0,-284.0,920.0,141634.0,141634.0
1253.0,-2343.0,-292.0,924.0,141510.0,141510.0
1254.0,-2343.0,-298.0,930.0,141628.0,141628.0
1255.0,-2341.0,-298.0,938.0,141884.0,141884.0
1256.0,-2361.0,-304.0,928.0,142114.0,142114.0
1257.0,-2371.0,-309.0,915.0,142023.0,142023.0
1258.0,-2365.0,-315.0,905.0,141870.0,141870.0
1259.0,-2378.0,-313.0,898.0,141974.0,141974.0
1260.0,-2376.0,-300.0,892.0,142403.0,142403.0
1261.0,-2359.0,-304.0,878.0,142646.0,142646.0
1262.0,-2375.0,-300.0,868.0,142566.0,142566.0
1263.0,-2363.0,-306.0,884.0,142458.0,142458.0
1264.0,-2364.0,-298.0,896.0,142576.0,142576.0
1265.0,-2367.0,-302.0,890.0,142928.0,142928.0
1266.0,-2356.0,-298.0,901.0,143134.0,143134.0
1267.0,-2356.0,-310.0,908.0,143026.0,143026.0
1268.0,-2348.0,-310.0,902.0,142870.0,142870.0
1269.0,-2355.0,-300.0,911.0,142981.0,142981.0
1270.0,-2358.0,-306.0,915.0,143262.0,143262.0
1271.0,-2360.0,-292.0,920.0,143473.0,143473.0
1272.0,-2362.0,-304.0,909.0,143426.0,143426.0
1273.0,-2361.0,-294.0,913.0,143351.0,143351.0
1274.0,-2364.0,-282.0,906.0,143494.0,143494.0
1275.0,-2340.0,-294.0,909.0,143902.0,143902.0
1276.0,-2350.0,-302.0,898.0,144141.0,144141.0
1277.0,-2354.0,-298.0,892.0,144172.0,144172.0
1278.0,-2350.0,-302.0,896.0,144156.0,144156.0
1279.0,-2354.0,-298.0,892.0,144426.0,144426.0
1280.0,-2349.0,-304.0,903.0,144894.0,144894.0
1281.0,-2348.0,-310.0,904.0,145292.0,145292.0
1282.0,-2359.0,-302.0,902.0,145338.0,145338.0
1283.0,-2354.0,-300.0,904.0,145277.0,145277.0
1284.0,-2363.0,-290.0,897.0,145471.0,145471.0
1285.0,-2365.0,-300.0,900.0,145931.0,145931.0
1286.0,-2369.0,-292.0,896.0,146301.0,146301.0
1287.0,-2371.0,-298.0,902.0,146322.0,146322.0
1288.0,-2368.0,-310.0,909.0,146296.0,146296.0
1289.0,-2383.0,-298.0,886.0,146442.0,146442.0
1290.0,-2362.0,-292.0,896.0,146706.0,146706.0
1291.0,-2366.0,-310.0,874.0,146701.0,146701.0
1292.0,-2376.0,-294.0,896.0,146286.0,146286.0
1293.0,-2373.0,-294.0,898.0,145785.0,145785.0
1294.0,-2365.0,-302.0,909.0,145467.0,145467.0
1295.0,-2374.0,-300.0,923.0,145201.0,145201.0
1296.0,-2363.0,-300.0,892.0,144918.0,144918.0
1297.0,-2364.0,-300.0,903.0,144347.0,144347.0
1298.0,-2359.0,-304.0,904.0,143771.0,143771.0
1299.0,-2369.0,-310.0,913.0,143513.0,143513.0
1300.0,-2368.0,-312.0,907.0,143484.0,143484.0
1301.0,-2360.0,-302.0,917.0,143363.0,143363.0
1302.0,-2374.0,-306.0,904.0,142919.0,142919.0
1303.0,-2369.0,-306.0,904.0,142401.0,142401.0
1304.0,-2375.0,-306.0,896.0,142259.0,142259.0
1305.0,-2376.0,-304.0,900.0,142332.0,142332.0
1306.0,-2366.0,-298.0,905.0,142308.0,142308.0
1307.0,-2378.0,-304.0,894.0,142035.0,142035.0
1308.0,-2361.0,-311.0,902.0,141729.0,141729.0
1309.0,-2357.0,-304.0,896.0,141675.0,141675.0
1310.0,-2369.0,-302.0,890.0,141883.0,141883.0
1311.0,-2365.0,-317.0,900.0,141994.0,141994.0
1312.0,-2359.0,-300.0,894.0,141676.0,141676.0
1313.0,-2366.0,-304.0,896.0,141239.0,141239.0
1314.0,-2361.0,-304.0,892.0,141163.0,141163.0
1315.0,-2367.0,-302.0,894.0,141436.0,141436.0
1316.0,-2375.0,-294.0,902.0,141579.0,141579.0
1317.0,-2374.0,-309.0,907.0,141354.0,141354.0
1318.0,-2371.0,-294.0,915.0,141080.0,141080.0
1319.0,-2374.0,-292.0,904.0,141099.0,141099.0
1320.0,-2357.0,-294.0,918.0,141273.0,141273.0
1321.0,-2346.0,-298.0,917.0,141294.0,141294.0
1322.0,-2354.0,-286.0,922.0,141096.0,141096.0
1323.0,-2358.0,-298.0,944.0,140915.0,140915.0
1324.0,-2376.0,-310.0,916.0,141013.0,141013.0
1325.0,-2372.0,-300.0,936.0,141274.0,141274.0
1326.0,-2380.0,-298.0,902.0,141387.0,141387.0
1327.0,-2383.0,-298.0,918.0,141278.0,141278.0
1328.0,-2387.0,-304.0,908.0,141036.0,141036.0
1329.0,-2388.0,-298.0,904.0,141036.0,141036.0
1330.0,-2371.0,-298.0,892.0,141344.0,141344.0
1331.0,-2374.0,-294.0,907.0,141411.0,141411.0
1332.0,-2382.0,-292.0,892.0,141155.0,141155.0
1333.0,-2354.0,-298.0,890.0,140908.0,140908.0
1334.0,-2348.0,-300.0,892.0,140903.0,140903.0
1335.0,-2359.0,-304.0,900.0,141146.0,141146.0
1336.0,-2365.0,-310.0,905.0,141310.0,141310.0
1337.0,-2361.0,-298.0,888.0,141235.0,141235.0
1338.0,-2358.0,-308.0,909.0,141011.0,141011.0
1339.0,-2365.0,-306.0,911.0,140905.0,140905.0
1340.0,-2373.0,-300.0,900.0,141093.0,141093.0
1341.0,-2359.0,-306.0,911.0,141244.0,141244.0
1342.0,-2364.0,-298.0,920.0,141130.0,141130.0
1343.0,-2368.0,-306.0,915.0,140938.0,140938.0
1344.0,-2366.0,-300.0,906.0,140929.0,140929.0
1345.0,-2367.0,-311.0,926.0,141191.0,141191.0
1346.0,-2360.0,-312.0,905.0,141362.0,141362.0
1347.0,-2366.0,-308.0,898.0,141176.0,141176.0
1348.0,-2359.0,-306.0,914.0,140936.0,140936.0
1349.0,-2370.0,-302.0,911.0,140911.0,140911.0
1350.0,-2379.0,-308.0,909.0,141068.0,141068.0
1351.0,-2385.0,-282.0,907.0,141132.0,141132.0
1352.0,-2371.0,-278.0,906.0,140903.0,140903.0
1353.0,-2366.0,-288.0,900.0,140681.0,140681.0
1354.0,-2378.0,-294.0,905.0,140703.0,140703.0
1355.0,-2369.0,-282.0,913.0,140928.0,140928.0
1356.0,-2374.0,-280.0,894.0,140994.0,140994.0
1357.0,-2370.0,-298.0,918.0,140849.0,140849.0
1358.0,-2369.0,-294.0,919.0,140760.0,140760.0
1359.0,-2394.0,-292.0,914.0,140813.0,140813.0
1360.0,-2372.0,-292.0,928.0,140991.0,140991.0
1361.0,-2381.0,-284.0,907.0,141082.0,141082.0
1362.0,-2371.0,-294.0,913.0,140813.0,140813.0
1363.0,-2372.0,-292.0,911.0,140468.0,140468.0
1364.0,-2371.0,-286.0,909.0,140478.0,140478.0
1365.0,-2374.0,-294.0,905.0,140839.0,140839.0
1366.0,-2362.0,-294.0,904.0,141019.0,141019.0
1367.0,-2360.0,-294.0,915.0,140789.0,140789.0
1368.0,-2360.0,-294.0,905.0,140583.0,140583.0
1369.0,-2356.0,-288.0,905.0,140620.0,140620.0
1370.0,-2356.0,-296.0,896.0,140878.0,140878.0
1371.0,-2376.0,-288.0,898.0,141024.0,141024.0
1372.0,-2357.0,-296.0,902.0,140906.0,140906.0
1373.0,-2353.0,-292.0,911.0,140688.0,140688.0
1374.0,-2354.0,-294.0,890.0,140756.0,140756.0
1375.0,-2358.0,-288.0,902.0,140973.0,140973.0
1376.0,-2365.0,-280.0,896.0,141049.0,141049.0
1377.0,-2371.0,-288.0,898.0,140850.0,140850.0
1378.0,-2374.0,-296.0,888.0,140568.0,140568.0
1379.0,-2373.0,-294.0,886.0,140551.0,140551.0
1380.0,-2367.0,-294.0,890.0,140787.0,140787.0
1381.0,-2376.0,-302.0,888.0,140884.0,140884.0
1382.0,-2367.0,-298.0,904.0,140697.0,140697.0
1383.0,-2364.0,-302.0,898.0,140486.0,140486.0
1384.0,-2366.0,-302.0,907.0,140458.0,140458.0
1385.0,-2371.0,-298.0,892.0,140751.0,140751.0
1386.0,-2366.0,-304.0,901.0,140968.0,140968.0
1387.0,-2372.0,-300.0,898.0,140951.0,140951.0
1388.0,-2364.0,-294.0,886.0,140891.0,140891.0
1389.0,-2360.0,-300.0,892.0,141100.0,141100.0
1390.0,-2366.0,-292.0,902.0,141519.0,141519.0
1391.0,-2359.0,-306.0,902.0,141705.0,141705.0
1392.0,-2365.0,-298.0,896.0,141494.0,141494.0
1393.0,-2351.0,-306.0,909.0,141333.0,141333.0
1394.0,-2360.0,-300.0,903.0,141433.0,141433.0
1395.0,-2352.0,-300.0,911.0,141938.0,141938.0
1396.0,-2347.0,-296.0,892.0,142291.0,142291.0
1397.0,-2364.0,-294.0,902.0,142076.0,142076.0
1398.0,-2356.0,-298.0,918.0,141694.0,141694.0
1399.0,-2366.0,-294.0,905.0,141524.0,141524.0
1400.0,-2359.0,-294.0,886.0,141656.0,141656.0
1401.0,-2370.0,-288.0,894.0,141692.0,141692.0
1402.0,-2362.0,-292.0,898.0,141478.0,141478.0
1403.0,-2364.0,-288.0,909.0,141270.0,141270.0
1404.0,-2376.0,-294.0,911.0,141151.0,141151.0
1405.0,-2371.0,-292.0,892.0,141159.0,141159.0
1406.0,-2364.0,-286.0,904.0,141186.0,141186.0
1407.0,-2369.0,-292.0,890.0,140986.0,140986.0
1408.0,-2387.0,-290.0,898.0,140794.0,140794.0
1409.0,-2369.0,-281.0,904.0,140787.0,140787.0
1410.0,-2376.0,-282.0,902.0,140743.0,140743.0
1411.0,-2364.0,-300.0,918.0,140718.0,140718.0
1412.0,-2388.0,-290.0,911.0,140537.0,140537.0
1413.0,-2368.0,-286.0,916.0,140189.0,140189.0
1414.0,-2372.0,-278.0,896.0,140179.0,140179.0
1415.0,-2371.0,-292.0,909.0,140484.0,140484.0
1416.0,-2372.0,-281.0,903.0,140620.0,140620.0
1417.0,-2357.0,-286.0,909.0,140437.0,140437.0
1418.0,-2360.0,-286.0,915.0,140153.0,140153.0
1419.0,-2356.0,-304.0,909.0,140186.0,140186.0
1420.0,-2362.0,-287.0,916.0,140482.0,140482.0
1421.0,-2354.0,-298.0,905.0,140597.0,140597.0
1422.0,-2357.0,-292.0,918.0,140389.0,140389.0
1423.0,-2352.0,-292.0,907.0,140181.0,140181.0
1424.0,-2349.0,-282.0,913.0,140220.0,140220.0
1425.0,-2350.0,-286.0,904.0,140488.0,140488.0
1426.0,-2370.0,-296.0,924.0,140598.0,140598.0
1427.0,-2348.0,-282.0,913.0,140148.0,140148.0
1428.0,-2359.0,-273.0,920.0,139503.0,139503.0
1429.0,-2347.0,-278.0,918.0,139783.0,139783.0
1430.0,-2349.0,-272.0,906.0,140873.0,140873.0
1431.0,-2352.0,-277.0,920.0,141541.0,141541.0
1432.0,-2352.0,-286.0,928.0,141713.0,141713.0
1433.0,-2350.0,-284.0,919.0,142703.0,142703.0
1434.0,-2356.0,-278.0,904.0,145941.0,145941.0
1435.0,-2349.0,-278.0,920.0,149166.0,149166.0
1436.0,-2359.0,-290.0,915.0,151086.0,151086.0
1437.0,-2364.0,-284.0,908.0,151746.0,151746.0
1438.0,-2352.0,-276.0,911.0,148248.0,148248.0
1439.0,-2361.0,-277.0,920.0,144756.0,144756.0
1440.0,-2362.0,-281.0,913.0,142755.0,142755.0
1441.0,-2359.0,-286.0,920.0,141307.0,141307.0
1442.0,-2364.0,-285.0,911.0,140244.0,140244.0
1443.0,-2366.0,-290.0,909.0,139376.0,139376.0
1444.0,-2369.0,-282.0,915.0,138992.0,138992.0
1445.0,-2363.0,-284.0,918.0,138821.0,138821.0
1446.0,-2364.0,-283.0,928.0,138871.0,138871.0
1447.0,-2380.0,-286.0,918.0,139050.0,139050.0
1448.0,-2373.0,-284.0,913.0,139518.0,139518.0
1449.0,-2368.0,-288.0,916.0,140136.0,140136.0
1450.0,-2369.0,-281.0,920.0,140752.0,140752.0
1451.0,-2357.0,-278.0,930.0,140994.0,140994.0
1452.0,-2362.0,-284.0,916.0,140925.0,140925.0
1453.0,-2357.0,-290.0,920.0,140871.0,140871.0
1454.0,-2361.0,-292.0,919.0,140977.0,140977.0
1455.0,-2374.0,-286.0,940.0,141286.0,141286.0
1456.0,-2370.0,-282.0,915.0,141537.0,141537.0
1457.0,-2378.0,-288.0,902.0,141476.0,141476.0
1458.0,-2369.0,-286.0,902.0,141243.0,141243.0
1459.0,-2352.0,-290.0,918.0,141393.0,141393.0
1460.0,-2357.0,-286.0,911.0,141682.0,141682.0
1461.0,-2352.0,-296.0,915.0,141843.0,141843.0
1462.0,-2349.0,-286.0,902.0,141774.0,141774.0
1463.0,-2343.0,-292.0,918.0,141574.0,141574.0
1464.0,-2349.0,-296.0,926.0,141603.0,141603.0
1465.0,-2359.0,-294.0,924.0,141988.0,141988.0
1466.0,-2363.0,-294.0,923.0,142199.0,142199.0
1467.0,-2367.0,-294.0,898.0,142128.0,142128.0
1468.0,-2351.0,-292.0,894.0,141896.0,141896.0
1469.0,-2365.0,-298.0,909.0,141991.0,141991.0
1470.0,-2376.0,-286.0,903.0,142316.0,142316.0
1471.0,-2371.0,-302.0,900.0,142611.0,142611.0
1472.0,-2368.0,-292.0,904.0,142568.0,142568.0
1473.0,-2356.0,-288.0,890.0,142417.0,142417.0
1474.0,-2360.0,-300.0,896.0,142497.0,142497.0
1475.0,-2348.0,-302.0,902.0,142855.0,142855.0
1476.0,-2340.0,-294.0,913.0,143121.0,143121.0
1477.0,-2352.0,-288.0,932.0,143066.0,143066.0
1478.0,-2353.0,-296.0,924.0,142830.0,142830.0
1479.0,-2356.0,-304.0,930.0,142923.0,142923.0
1480.0,-2356.0,-302.0,913.0,143257.0,143257.0
1481.0,-2351.0,-302.0,934.0,143483.0,143483.0
1482.0,-2352.0,-302.0,928.0,143493.0,143493.0
1483.0,-2356.0,-306.0,928.0,143356.0,143356.0
1484.0,-2361.0,-311.0,926.0,143440.0,143440.0
1485.0,-2353.0,-304.0,917.0,143880.0,143880.0
1486.0,-2362.0,-294.0,902.0,144166.0,144166.0
1487.0,-2355.0,-310.0,903.0,144185.0,144185.0
1488.0,-2365.0,-302.0,907.0,144202.0,144202.0
1489.0,-2363.0,-300.0,886.0,144419.0,144419.0
1490.0,-2357.0,-302.0,913.0,144884.0,144884.0
1491.0,-2373.0,-296.0,892.0,145306.0,145306.0
1492.0,-2369.0,-292.0,905.0,145361.0,145361.0
1493.0,-2362.0,-308.0,900.0,145386.0,145386.0
1494.0,-2357.0,-296.0,902.0,145652.0,145652.0
1495.0,-2364.0,-298.0,917.0,146141.0,146141.0
1496.0,-2355.0,-304.0,900.0,146516.0,146516.0
1497.0,-2372.0,-314.0,911.0,146414.0,146414.0
1498.0,-2359.0,-296.0,906.0,146178.0,146178.0
1499.0,-2348.0,-298.0,888.0,146114.0,146114.0
1500.0,-2365.0,-298.0,896.0,146213.0,146213.0
1501.0,-2363.0,-306.0,916.0,146110.0,146110.0
1502.0,-2361.0,-298.0,922.0,145622.0,145622.0
1503.0,-2373.0,-306.0,906.0,145006.0,145006.0
1504.0,-2361.0,-306.0,917.0,144575.0,144575.0
1505.0,-2352.0,-315.0,925.0,144373.0,144373.0
1506.0,-2372.0,-315.0,922.0,144126.0,144126.0
1507.0,-2360.0,-306.0,913.0,143583.0,143583.0
1508.0,-2362.0,-306.0,913.0,143030.0,143030.0
1509.0,-2376.0,-324.0,907.0,142785.0,142785.0
1510.0,-2366.0,-310.0,917.0,142735.0,142735.0
1511.0,-2357.0,-311.0,932.0,142648.0,142648.0
1512.0,-2370.0,-317.0,922.0,142308.0,142308.0
1513.0,-2373.0,-326.0,903.0,141907.0,141907.0
1514.0,-2363.0,-317.0,904.0,141735.0,141735.0
1515.0,-2357.0,-315.0,896.0,141926.0,141926.0
1516.0,-2362.0,-304.0,915.0,142036.0,142036.0
1517.0,-2350.0,-298.0,913.0,141771.0,141771.0
1518.0,-2364.0,-296.0,896.0,141483.0,141483.0
1519.0,-2353.0,-290.0,907.0,141446.0,141446.0
1520.0,-2357.0,-296.0,904.0,141644.0,141644.0
1521.0,-2343.0,-296.0,906.0,141734.0,141734.0
1522.0,-2361.0,-311.0,915.0,141476.0,141476.0
1523.0,-2360.0,-304.0,906.0,141093.0,141093.0
1524.0,-2365.0,-306.0,924.0,141136.0,141136.0
1525.0,-2359.0,-290.0,926.0,141407.0,141407.0
1526.0,-2361.0,-305.0,907.0,141456.0,141456.0
1527.0,-2369.0,-290.0,911.0,141208.0,141208.0
1528.0,-2365.0,-282.0,928.0,140909.0,140909.0
1529.0,-2359.0,-290.0,898.0,140889.0,140889.0
1530.0,-2352.0,-288.0,926.0,141138.0,141138.0
1531.0,-2352.0,-292.0,913.0,141346.0,141346.0
1532.0,-2359.0,-314.0,934.0,141201.0,141201.0
1533.0,-2365.0,-294.0,913.0,141005.0,141005.0
1534.0,-2374.0,-302.0,904.0,140959.0,140959.0
1535.0,-2389.0,-290.0,907.0,141188.0,141188.0
1536.0,-2392.0,-284.0,882.0,141378.0,141378.0
1537.0,-2388.0,-294.0,894.0,141166.0,141166.0
1538.0,-2392.0,-288.0,888.0,140877.0,140877.0
1539.0,-2379.0,-280.0,880.0,140872.0,140872.0
1540.0,-2381.0,-286.0,888.0,141075.0,141075.0
1541.0,-2355.0,-282.0,884.0,141194.0,141194.0
1542.0,-2370.0,-292.0,884.0,141014.0,141014.0
1543.0,-2362.0,-290.0,918.0,140748.0,140748.0
1544.0,-2361.0,-302.0,909.0,140771.0,140771.0
1545.0,-2356.0,-288.0,904.0,141037.0,141037.0
1546.0,-2372.0,-288.0,902.0,141154.0,141154.0
1547.0,-2374.0,-308.0,888.0,140956.0,140956.0
1548.0,-2369.0,-300.0,904.0,140675.0,140675.0
1549.0,-2383.0,-308.0,909.0,140703.0,140703.0
1550.0,-2380.0,-294.0,894.0,140949.0,140949.0
1551.0,-2381.0,-296.0,902.0,141091.0,141091.0
1552.0,-2369.0,-318.0,896.0,140968.0,140968.0
1553.0,-2380.0,-306.0,898.0,140728.0,140728.0
1554.0,-2371.0,-310.0,894.0,140713.0,140713.0
1555.0,-2367.0,-298.0,886.0,140937.0,140937.0
1556.0,-2364.0,-292.0,886.0,141106.0,141106.0
1557.0,-2356.0,-292.0,900.0,140929.0,140929.0
1558.0,-2348.0,-302.0,890.0,140585.0,140585.0
1559.0,-2352.0,-296.0,908.0,140656.0,140656.0
1560.0,-2350.0,-306.0,902.0,140891.0,140891.0
1561.0,-2360.0,-304.0,898.0,140939.0,140939.0
1562.0,-2350.0,-282.0,884.0,140791.0,140791.0
1563.0,-2363.0,-290.0,902.0,140474.0,140474.0
1564.0,-2360.0,-290.0,913.0,140467.0,140467.0
1565.0,-2365.0,-292.0,900.0,140738.0,140738.0
1566.0,-2360.0,-290.0,898.0,140935.0,140935.0
1567.0,-2362.0,-288.0,913.0,140791.0,140791.0
1568.0,-2353.0,-298.0,900.0,140511.0,140511.0
1569.0,-2360.0,-290.0,892.0,140460.0,140460.0
1570.0,-2369.0,-298.0,906.0,140692.0,140692.0
1571.0,-2364.0,-294.0,884.0,140880.0,140880.0
1572.0,-2364.0,-282.0,890.0,140762.0,140762.0
1573.0,-2357.0,-282.0,880.0,140503.0,140503.0
1574.0,-2369.0,-279.0,906.0,140439.0,140439.0
1575.0,-2373.0,-281.0,874.0,140700.0,140700.0
1576.0,-2370.0,-284.0,886.0,140870.0,140870.0
1577.0,-2363.0,-290.0,894.0,140667.0,140667.0
1578.0,-2378.0,-283.0,890.0,140464.0,140464.0
1579.0,-2380.0,-282.0,874.0,140439.0,140439.0
1580.0,-2367.0,-290.0,876.0,140624.0,140624.0
1581.0,-2376.0,-294.0,898.0,140854.0,140854.0
1582.0,-2371.0,-296.0,882.0,140684.0,140684.0
1583.0,-2372.0,-296.0,884.0,140441.0,140441.0
1584.0,-2372.0,-292.0,880.0,140439.0,140439.0
1585.0,-2370.0,-286.0,888.0,140709.0,140709.0
1586.0,-2371.0,-300.0,898.0,140948.0,140948.0
1587.0,-2375.0,-292.0,898.0,140876.0,140876.0
1588.0,-2376.0,-290.0,904.0,140843.0,140843.0
1589.0,-2364.0,-294.0,900.0,141076.0,141076.0
1590.0,-2366.0,-296.0,896.0,141512.0,141512.0
1591.0,-2373.0,-310.0,886.0,141715.0,141715.0
1592.0,-2371.0,-286.0,902.0,141616.0,141616.0
1593.0,-2364.0,-296.0,902.0,141470.0,141470.0
1594.0,-2374.0,-292.0,888.0,141613.0,141613.0
1595.0,-2376.0,-290.0,878.0,142121.0,142121.0
1596.0,-2376.0,-296.0,884.0,142493.0,142493.0
1597.0,-2377.0,-284.0,868.0,142336.0,142336.0
1598.0,-2352.0,-298.0,872.0,141923.0,141923.0
1599.0,-2356.0,-304.0,864.0,141779.0,141779.0
1600.0,-2345.0,-298.0,864.0,141907.0,141907.0
1601.0,-2347.0,-292.0,854.0,141906.0,141906.0
1602.0,-2352.0,-298.0,884.0,141733.0,141733.0
1603.0,-2352.0,-294.0,892.0,141479.0,141479.0
1604.0,-2374.0,-296.0,886.0,141221.0,141221.0
1605.0,-2361.0,-304.0,890.0,141315.0,141315.0
1606.0,-2366.0,-304.0,888.0,141566.0,141566.0
1607.0,-2364.0,-304.0,890.0,141379.0,141379.0
1608.0,-2367.0,-304.0,907.0,141035.0,141035.0
1609.0,-2367.0,-304.0,900.0,140806.0,140806.0
1610.0,-2367.0,-311.0,890.0,140878.0,140878.0
1611.0,-2362.0,-304.0,884.0,141019.0,141019.0
1612.0,-2384.0,-296.0,894.0,140753.0,140753.0
1613.0,-2371.0,-302.0,892.0,140432.0,140432.0
1614.0,-2372.0,-304.0,898.0,140409.0,140409.0
1615.0,-2385.0,-294.0,890.0,140713.0,140713.0
1616.0,-2372.0,-298.0,900.0,140851.0,140851.0
1617.0,-2361.0,-302.0,886.0,140754.0,140754.0
1618.0,-2376.0,-300.0,890.0,140452.0,140452.0
1619.0,-2369.0,-310.0,872.0,140408.0,140408.0
1620.0,-2371.0,-315.0,880.0,140666.0,140666.0
1621.0,-2372.0,-300.0,896.0,140839.0,140839.0
1622.0,-2369.0,-312.0,892.0,140691.0,140691.0
1623.0,-2365.0,-316.0,888.0,140462.0,140462.0
1624.0,-2370.0,-308.0,897.0,140382.0,140382.0
1625.0,-2369.0,-308.0,900.0,140615.0,140615.0
1626.0,-2378.0,-310.0,884.0,140586.0,140586.0
1627.0,-2365.0,-300.0,896.0,140058.0,140058.0
1628.0,-2361.0,-300.0,902.0,139683.0,139683.0
1629.0,-2375.0,-309.0,901.0,140263.0,140263.0
1630.0,-2375.0,-300.0,894.0,141265.0,141265.0
1631.0,-2361.0,-306.0,888.0,141837.0,141837.0
1632.0,-2377.0,-296.0,901.0,142669.0,142669.0
1633.0,-2372.0,-306.0,884.0,144789.0,144789.0
1634.0,-2370.0,-292.0,872.0,148035.0,148035.0
1635.0,-2378.0,-304.0,880.0,150434.0,150434.0
1636.0,-2372.0,-296.0,898.0,152089.0,152089.0
1637.0,-2373.0,-312.0,872.0,150435.0,150435.0
1638.0,-2376.0,-296.0,888.0,146450.0,146450.0
1639.0,-2370.0,-306.0,892.0,143523.0,143523.0
1640.0,-2374.0,-296.0,882.0,141743.0,141743.0
1641.0,-2374.0,-310.0,874.0,140839.0,140839.0
1642.0,-2372.0,-314.0,888.0,140104.0,140104.0
1643.0,-2381.0,-302.0,888.0,139559.0,139559.0
1644.0,-2390.0,-305.0,894.0,139276.0,139276.0
1645.0,-2369.0,-309.0,888.0,139133.0,139133.0
1646.0,-2387.0,-300.0,876.0,139310.0,139310.0
1647.0,-2390.0,-309.0,892.0,139666.0,139666.0
1648.0,-2396.0,-310.0,892.0,140136.0,140136.0
1649.0,-2380.0,-306.0,884.0,140603.0,140603.0
1650.0,-2380.0,-302.0,866.0,141124.0,141124.0
1651.0,-2369.0,-308.0,878.0,141425.0,141425.0
1652.0,-2362.0,-313.0,892.0,141382.0,141382.0
1653.0,-2358.0,-304.0,882.0,141223.0,141223.0
1654.0,-2365.0,-294.0,897.0,141293.0,141293.0
1655.0,-2365.0,-300.0,878.0,141679.0,141679.0
1656.0,-2372.0,-302.0,884.0,141986.0,141986.0
1657.0,-2352.0,-298.0,880.0,141884.0,141884.0
1658.0,-2359.0,-300.0,886.0,141686.0,141686.0
1659.0,-2371.0,-298.0,874.0,141768.0,141768.0
1660.0,-2338.0,-292.0,880.0,142045.0,142045.0
1661.0,-2348.0,-290.0,896.0,142318.0,142318.0
1662.0,-2354.0,-302.0,900.0,142246.0,142246.0
1663.0,-2354.0,-304.0,892.0,142014.0,142014.0
1664.0,-2348.0,-296.0,898.0,142189.0,142189.0
1665.0,-2369.0,-294.0,904.0,142643.0,142643.0
1666.0,-2361.0,-282.0,896.0,142851.0,142851.0
1667.0,-2371.0,-294.0,890.0,142694.0,142694.0
1668.0,-2362.0,-286.0,900.0,142558.0,142558.0
1669.0,-2367.0,-292.0,888.0,142648.0,142648.0
1670.0,-2371.0,-300.0,894.0,142996.0,142996.0
1671.0,-2381.0,-286.0,896.0,143365.0,143365.0
1672.0,-2385.0,-288.0,888.0,143263.0,143263.0
1673.0,-2374.0,-282.0,896.0,142893.0,142893.0
1674.0,-2382.0,-274.0,882.0,143019.0,143019.0
1675.0,-2380.0,-284.0,900.0,143591.0,143591.0
1676.0,-2364.0,-300.0,913.0,143968.0,143968.0
1677.0,-2376.0,-278.0,918.0,143957.0,143957.0
1678.0,-2372.0,-290.0,915.0,143856.0,143856.0
1679.0,-2369.0,-286.0,917.0,143934.0,143934.0
1680.0,-2362.0,-288.0,915.0,144207.0,144207.0
1681.0,-2369.0,-292.0,902.0,144530.0,144530.0
1682.0,-2376.0,-286.0,915.0,144403.0,144403.0
1683.0,-2370.0,-288.0,900.0,144248.0,144248.0
1684.0,-2376.0,-288.0,905.0,144608.0,144608.0
1685.0,-2376.0,-277.0,890.0,144903.0,144903.0
1686.0,-2399.0,-268.0,884.0,145218.0,145218.0
1687.0,-2389.0,-273.0,878.0,145529.0,145529.0
1688.0,-2397.0,-278.0,870.0,145608.0,145608.0
1689.0,-2392.0,-272.0,878.0,145879.0,145879.0
1690.0,-2381.0,-262.0,866.0,146406.0,146406.0
1691.0,-2366.0,-269.0,866.0,146726.0,146726.0
1692.0,-2374.0,-271.0,870.0,146979.0,146979.0
1693.0,-2361.0,-273.0,888.0,147039.0,147039.0
1694.0,-2352.0,-286.0,880.0,147164.0,147164.0
1695.0,-2366.0,-288.0,890.0,147681.0,147681.0
1696.0,-2367.0,-284.0,880.0,148167.0,148167.0
1697.0,-2365.0,-292.0,884.0,148136.0,148136.0
1698.0,-2364.0,-294.0,876.0,147843.0,147843.0
1699.0,-2367.0,-300.0,884.0,147611.0,147611.0
1700.0,-2369.0,-292.0,870.0,147612.0,147612.0
1701.0,-2365.0,-298.0,866.0,147508.0,147508.0
1702.0,-2378.0,-296.0,866.0,147001.0,147001.0
1703.0,-2376.0,-292.0,846.0,146391.0,146391.0
1704.0,-2371.0,-302.0,836.0,145713.0,145713.0
1705.0,-2357.0,-306.0,850.0,145562.0,145562.0
1706.0,-2357.0,-296.0,856.0,145626.0,145626.0
1707.0,-2360.0,-314.0,839.0,145341.0,145341.0
1708.0,-2367.0,-309.0,840.0,144632.0,144632.0
1709.0,-2359.0,-310.0,858.0,144150.0,144150.0
1710.0,-2374.0,-317.0,844.0,144353.0,144353.0
1711.0,-2366.0,-310.0,858.0,144695.0,144695.0
1712.0,-2383.0,-313.0,842.0,144429.0,144429.0
1713.0,-2387.0,-310.0,852.0,143926.0,143926.0
1714.0,-2399.0,-304.0,878.0,143787.0,143787.0
1715.0,-2408.0,-306.0,860.0,143878.0,143878.0
1716.0,-2406.0,-312.0,864.0,143994.0,143994.0
1717.0,-2411.0,-300.0,864.0,143920.0,143920.0
1718.0,-2414.0,-312.0,866.0,143776.0,143776.0
1719.0,-2411.0,-308.0,856.0,143749.0,143749.0
1720.0,-2399.0,-313.0,850.0,143988.0,143988.0
1721.0,-2402.0,-313.0,860.0,144308.0,144308.0
1722.0,-2409.0,-308.0,852.0,144094.0,144094.0
1723.0,-2411.0,-317.0,834.0,143663.0,143663.0
1724.0,-2404.0,-308.0,844.0,143671.0,143671.0
1725.0,-2411.0,-324.0,856.0,144083.0,144083.0
1726.0,-2398.0,-317.0,860.0,144352.0,144352.0
1727.0,-2376.0,-336.0,858.0,144251.0,144251.0
1728.0,-2380.0,-308.0,862.0,143939.0,143939.0
1729.0,-2371.0,-326.0,868.0,143814.0,143814.0
1730.0,-2368.0,-327.0,866.0,143908.0,143908.0
1731.0,-2367.0,-327.0,872.0,144051.0,144051.0
1732.0,-2371.0,-326.0,880.0,143956.0,143956.0
1733.0,-2365.0,-330.0,858.0,143698.0,143698.0
1734.0,-2375.0,-324.0,838.0,143677.0,143677.0
1735.0,-2364.0,-324.0,840.0,143954.0,143954.0
1736.0,-2356.0,-322.0,858.0,144164.0,144164.0
1737.0,-2343.0,-320.0,850.0,143993.0,143993.0
1738.0,-2345.0,-324.0,852.0,143714.0,143714.0
1739.0,-2341.0,-323.0,852.0,143565.0,143565.0
1740.0,-2336.0,-319.0,864.0,143769.0,143769.0
1741.0,-2322.0,-319.0,862.0,143956.0,143956.0
1742.0,-2344.0,-312.0,870.0,143863.0,143863.0
1743.0,-2338.0,-314.0,892.0,143521.0,143521.0
1744.0,-2345.0,-317.0,886.0,143434.0,143434.0
1745.0,-2347.0,-312.0,872.0,143621.0,143621.0
1746.0,-2365.0,-312.0,872.0,143741.0,143741.0
1747.0,-2372.0,-310.0,866.0,143469.0,143469.0
1748.0,-2391.0,-316.0,858.0,143259.0,143259.0
1749.0,-2390.0,-320.0,850.0,143157.0,143157.0
1750.0,-2380.0,-328.0,860.0,143368.0,143368.0
1751.0,-2374.0,-302.0,838.0,143640.0,143640.0
1752.0,-2395.0,-312.0,858.0,143579.0,143579.0
1753.0,-2385.0,-308.0,858.0,143224.0,143224.0
1754.0,-2387.0,-311.0,856.0,143136.0,143136.0
1755.0,-2392.0,-318.0,858.0,143385.0,143385.0
1756.0,-2397.0,-319.0,866.0,143558.0,143558.0
1757.0,-2408.0,-312.0,862.0,143284.0,143284.0
1758.0,-2409.0,-313.0,864.0,142969.0,142969.0
1759.0,-2411.0,-321.0,856.0,142985.0,142985.0
1760.0,-2403.0,-328.0,876.0,143111.0,143111.0
1761.0,-2409.0,-334.0,866.0,143163.0,143163.0
1762.0,-2402.0,-326.0,880.0,143099.0,143099.0
1763.0,-2396.0,-338.0,874.0,142758.0,142758.0
1764.0,-2406.0,-324.0,870.0,142594.0,142594.0
1765.0,-2406.0,-332.0,864.0,142792.0,142792.0
1766.0,-2411.0,-332.0,890.0,143123.0,143123.0
1767.0,-2402.0,-328.0,888.0,142934.0,142934.0
1768.0,-2410.0,-323.0,876.0,142649.0,142649.0
1769.0,-2401.0,-324.0,870.0,142736.0,142736.0
1770.0,-2398.0,-313.0,882.0,143017.0,143017.0
1771.0,-2387.0,-324.0,874.0,143244.0,143244.0
1772.0,-2395.0,-323.0,874.0,143159.0,143159.0
1773.0,-2380.0,-308.0,874.0,142949.0,142949.0
1774.0,-2376.0,-302.0,878.0,142878.0,142878.0
1775.0,-2389.0,-302.0,876.0,143166.0,143166.0
1776.0,-2378.0,-304.0,870.0,143198.0,143198.0
1777.0,-2394.0,-288.0,880.0,142894.0,142894.0
1778.0,-2379.0,-290.0,890.0,142611.0,142611.0
1779.0,-2374.0,-286.0,886.0,142560.0,142560.0
1780.0,-2387.0,-282.0,886.0,142933.0,142933.0
1781.0,-2376.0,-294.0,864.0,143128.0,143128.0
1782.0,-2373.0,-294.0,890.0,143028.0,143028.0
1783.0,-2372.0,-298.0,882.0,142807.0,142807.0
1784.0,-2381.0,-312.0,878.0,142831.0,142831.0
1785.0,-2380.0,-311.0,886.0,143174.0,143174.0
1786.0,-2385.0,-302.0,896.0,143528.0,143528.0
1787.0,-2380.0,-323.0,898.0,143596.0,143596.0
1788.0,-2385.0,-317.0,882.0,143431.0,143431.0
1789.0,-2381.0,-326.0,894.0,143479.0,143479.0
1790.0,-2382.0,-323.0,902.0,143829.0,143829.0
1791.0,-2380.0,-330.0,894.0,144166.0,144166.0
1792.0,-2380.0,-315.0,894.0,144068.0,144068.0
1793.0,-2373.0,-323.0,886.0,143847.0,143847.0
1794.0,-2364.0,-298.0,890.0,143797.0,143797.0
1795.0,-2367.0,-302.0,878.0,143775.0,143775.0
1796.0,-2367.0,-310.0,884.0,143778.0,143778.0
1797.0,-2365.0,-306.0,876.0,143428.0,143428.0
1798.0,-2354.0,-292.0,870.0,142993.0,142993.0
1799.0,-2355.0,-292.0,872.0,142898.0,142898.0
1800.0,-2354.0,-282.0,852.0,143212.0,143212.0
1801.0,-2355.0,-275.0,864.0,143213.0,143213.0
1802.0,-2357.0,-272.0,868.0,142883.0,142883.0
1803.0,-2360.0,-268.0,860.0,142647.0,142647.0
1804.0,-2352.0,-262.0,864.0,142529.0,142529.0
1805.0,-2364.0,-264.0,874.0,142677.0,142677.0
1806.0,-2372.0,-262.0,876.0,142701.0,142701.0
1807.0,-2363.0,-254.0,870.0,142393.0,142393.0
1808.0,-2365.0,-256.0,880.0,142186.0,142186.0
1809.0,-2378.0,-258.0,872.0,142115.0,142115.0
1810.0,-2378.0,-270.0,884.0,142226.0,142226.0
1811.0,-2380.0,-262.0,876.0,142493.0,142493.0
1812.0,-2391.0,-268.0,870.0,142374.0,142374.0
1813.0,-2393.0,-266.0,868.0,142077.0,142077.0
1814.0,-2389.0,-281.0,864.0,141990.0,141990.0
1815.0,-2399.0,-267.0,874.0,141984.0,141984.0
1816.0,-2398.0,-284.0,868.0,142128.0,142128.0
1817.0,-2404.0,-277.0,880.0,142040.0,142040.0
1818.0,-2397.0,-269.0,868.0,141772.0,141772.0
1819.0,-2395.0,-272.0,876.0,141716.0,141716.0
1820.0,-2400.0,-283.0,882.0,141838.0,141838.0
1821.0,-2398.0,-275.0,866.0,141851.0,141851.0
1822.0,-2395.0,-284.0,870.0,141699.0,141699.0
1823.0,-2390.0,-281.0,880.0,141303.0,141303.0
1824.0,-2387.0,-275.0,872.0,140966.0,140966.0
1825.0,-2375.0,-290.0,880.0,141192.0,141192.0
1826.0,-2380.0,-292.0,892.0,142341.0,142341.0
1827.0,-2362.0,-282.0,878.0,143196.0,143196.0
1828.0,-2374.0,-286.0,894.0,143276.0,143276.0
1829.0,-2372.0,-302.0,880.0,143843.0,143843.0
1830.0,-2374.0,-300.0,884.0,146048.0,146048.0
1831.0,-2366.0,-292.0,882.0,149588.0,149588.0
1832.0,-2364.0,-300.0,874.0,151605.0,151605.0
1833.0,-2366.0,-304.0,884.0,152968.0,152968.0
1834.0,-2364.0,-298.0,880.0,151863.0,151863.0
1835.0,-2367.0,-304.0,872.0,148046.0,148046.0
1836.0,-2372.0,-306.0,876.0,145131.0,145131.0
1837.0,-2374.0,-306.0,876.0,142906.0,142906.0
1838.0,-2371.0,-304.0,878.0,141598.0,141598.0
1839.0,-2378.0,-306.0,870.0,141123.0,141123.0
1840.0,-2382.0,-304.0,862.0,141057.0,141057.0
1841.0,-2370.0,-319.0,880.0,140896.0,140896.0
1842.0,-2381.0,-308.0,884.0,140431.0,140431.0
1843.0,-2393.0,-325.0,868.0,140251.0,140251.0
1844.0,-2381.0,-317.0,868.0,140622.0,140622.0
1845.0,-2387.0,-304.0,862.0,141399.0,141399.0
1846.0,-2376.0,-306.0,860.0,141939.0,141939.0
1847.0,-2381.0,-300.0,864.0,142242.0,142242.0
1848.0,-2371.0,-294.0,868.0,142166.0,142166.0
1849.0,-2360.0,-290.0,858.0,142148.0,142148.0
1850.0,-2371.0,-308.0,856.0,142064.0,142064.0
1851.0,-2366.0,-296.0,868.0,142153.0,142153.0
1852.0,-2370.0,-294.0,880.0,142228.0,142228.0
1853.0,-2389.0,-282.0,874.0,141958.0,141958.0
1854.0,-2392.0,-279.0,858.0,141931.0,141931.0
1855.0,-2406.0,-288.0,844.0,142233.0,142233.0
1856.0,-2404.0,-292.0,860.0,142542.0,142542.0
1857.0,-2415.0,-288.0,860.0,142699.0,142699.0
1858.0,-2423.0,-278.0,858.0,142521.0,142521.0
1859.0,-2423.0,-278.0,838.0,142474.0,142474.0
1860.0,-2422.0,-273.0,842.0,142691.0,142691.0
1861.0,-2416.0,-290.0,834.0,142839.0,142839.0
1862.0,-2412.0,-284.0,842.0,142896.0,142896.0
1863.0,-2413.0,-296.0,838.0,142864.0,142864.0
1864.0,-2408.0,-286.0,842.0,142914.0,142914.0
1865.0,-2409.0,-288.0,836.0,143091.0,143091.0
1866.0,-2402.0,-296.0,830.0,143344.0,143344.0
1867.0,-2400.0,-286.0,842.0,143455.0,143455.0
1868.0,-2401.0,-277.0,834.0,143649.0,143649.0
1869.0,-2369.0,-279.0,827.0,143954.0,143954.0
1870.0,-2376.0,-286.0,832.0,144309.0,144309.0
1871.0,-2376.0,-288.0,828.0,144743.0,144743.0
1872.0,-2359.0,-268.0,848.0,145087.0,145087.0
1873.0,-2359.0,-272.0,844.0,145214.0,145214.0
1874.0,-2355.0,-262.0,844.0,145173.0,145173.0
1875.0,-2373.0,-269.0,858.0,145203.0,145203.0
1876.0,-2373.0,-275.0,852.0,145435.0,145435.0
1877.0,-2371.0,-269.0,850.0,145564.0,145564.0
1878.0,-2375.0,-271.0,860.0,145402.0,145402.0
1879.0,-2388.0,-269.0,864.0,145474.0,145474.0
1880.0,-2397.0,-275.0,862.0,145861.0,145861.0
1881.0,-2397.0,-282.0,860.0,146182.0,146182.0
1882.0,-2394.0,-272.0,858.0,146264.0,146264.0
1883.0,-2400.0,-281.0,864.0,146235.0,146235.0
1884.0,-2404.0,-279.0,856.0,146512.0,146512.0
1885.0,-2402.0,-288.0,862.0,146882.0,146882.0
1886.0,-2385.0,-283.0,854.0,147312.0,147312.0
1887.0,-2406.0,-296.0,852.0,147593.0,147593.0
1888.0,-2409.0,-298.0,840.0,147509.0,147509.0
1889.0,-2399.0,-296.0,862.0,147574.0,147574.0
1890.0,-2398.0,-300.0,854.0,147879.0,147879.0
1891.0,-2401.0,-310.0,842.0,148358.0,148358.0
1892.0,-2402.0,-313.0,836.0,148405.0,148405.0
1893.0,-2387.0,-312.0,836.0,148059.0,148059.0
1894.0,-2395.0,-304.0,842.0,147858.0,147858.0
1895.0,-2396.0,-312.0,854.0,148049.0,148049.0
1896.0,-2387.0,-319.0,842.0,148162.0,148162.0
1897.0,-2380.0,-317.0,856.0,147845.0,147845.0
1898.0,-2376.0,-312.0,858.0,147417.0,147417.0
1899.0,-2374.0,-321.0,852.0,147005.0,147005.0
1900.0,-2375.0,-306.0,858.0,146730.0,146730.0
1901.0,-2373.0,-308.0,866.0,146579.0,146579.0
1902.0,-2374.0,-321.0,856.0,146238.0,146238.0
1903.0,-2363.0,-320.0,864.0,145608.0,145608.0
1904.0,-2379.0,-314.0,868.0,144739.0,144739.0
1905.0,-2386.0,-310.0,866.0,144393.0,144393.0
1906.0,-2378.0,-304.0,874.0,144408.0,144408.0
1907.0,-2383.0,-312.0,870.0,144213.0,144213.0
1908.0,-2392.0,-312.0,880.0,144021.0,144021.0
1909.0,-2376.0,-313.0,878.0,143897.0,143897.0
1910.0,-2387.0,-309.0,882.0,143849.0,143849.0
1911.0,-2397.0,-321.0,870.0,143713.0,143713.0
1912.0,-2394.0,-313.0,882.0,143383.0,143383.0
1913.0,-2391.0,-319.0,866.0,143041.0,143041.0
1914.0,-2390.0,-310.0,874.0,142990.0,142990.0
1915.0,-2396.0,-314.0,868.0,143126.0,143126.0
1916.0,-2390.0,-317.0,860.0,143234.0,143234.0
1917.0,-2396.0,-313.0,866.0,143161.0,143161.0
1918.0,-2399.0,-308.0,874.0,143021.0,143021.0
1919.0,-2389.0,-304.0,868.0,143029.0,143029.0
1920.0,-2397.0,-322.0,866.0,143183.0,143183.0
1921.0,-2395.0,-300.0,888.0,143186.0,143186.0
1922.0,-2406.0,-312.0,888.0,142874.0,142874.0
1923.0,-2394.0,-302.0,862.0,142505.0,142505.0
1924.0,-2383.0,-300.0,882.0,142383.0,142383.0
1925.0,-2379.0,-302.0,890.0,142522.0,142522.0
1926.0,-2386.0,-290.0,886.0,142891.0,142891.0
1927.0,-2380.0,-298.0,872.0,142994.0,142994.0
1928.0,-2391.0,-298.0,882.0,142866.0,142866.0
1929.0,-2397.0,-294.0,884.0,142760.0,142760.0
1930.0,-2395.0,-290.0,880.0,142786.0,142786.0
1931.0,-2392.0,-284.0,858.0,142786.0,142786.0
1932.0,-2397.0,-280.0,860.0,142917.0,142917.0
1933.0,-2400.0,-288.0,844.0,142889.0,142889.0
1934.0,-2394.0,-284.0,858.0,142932.0,142932.0
1935.0,-2388.0,-286.0,856.0,143134.0,143134.0
1936.0,-2383.0,-286.0,827.0,143393.0,143393.0
1937.0,-2376.0,-290.0,846.0,143332.0,143332.0
1938.0,-2356.0,-288.0,840.0,143217.0,143217.0
1939.0,-2358.0,-294.0,862.0,143174.0,143174.0
1940.0,-2364.0,-284.0,846.0,143281.0,143281.0
1941.0,-2358.0,-284.0,842.0,143364.0,143364.0
1942.0,-2361.0,-274.0,868.0,143206.0,143206.0
1943.0,-2372.0,-273.0,854.0,143046.0,143046.0
1944.0,-2376.0,-278.0,850.0,143061.0,143061.0
1945.0,-2387.0,-280.0,848.0,143091.0,143091.0
1946.0,-2379.0,-272.0,860.0,143005.0,143005.0
1947.0,-2388.0,-281.0,864.0,142949.0,142949.0
1948.0,-2392.0,-279.0,852.0,142723.0,142723.0
1949.0,-2374.0,-272.0,862.0,142583.0,142583.0
1950.0,-2365.0,-268.0,862.0,142698.0,142698.0
1951.0,-2366.0,-278.0,866.0,142770.0,142770.0
1952.0,-2381.0,-286.0,858.0,142757.0,142757.0
1953.0,-2376.0,-286.0,846.0,142682.0,142682.0
1954.0,-2366.0,-290.0,856.0,142654.0,142654.0
1955.0,-2378.0,-300.0,860.0,142768.0,142768.0
1956.0,-2369.0,-290.0,856.0,142946.0,142946.0
1957.0,-2388.0,-294.0,840.0,143011.0,143011.0
1958.0,-2390.0,-298.0,840.0,142741.0,142741.0
1959.0,-2392.0,-294.0,825.0,142591.0,142591.0
1960.0,-2399.0,-296.0,844.0,142874.0,142874.0
1961.0,-2390.0,-300.0,844.0,142944.0,142944.0
1962.0,-2389.0,-298.0,834.0,142819.0,142819.0
1963.0,-2400.0,-284.0,838.0,142481.0,142481.0
1964.0,-2402.0,-284.0,848.0,142326.0,142326.0
1965.0,-2397.0,-292.0,856.0,142491.0,142491.0
1966.0,-2385.0,-277.0,838.0,142728.0,142728.0
1967.0,-2385.0,-282.0,838.0,142609.0,142609.0
1968.0,-2385.0,-294.0,838.0,142318.0,142318.0
1969.0,-2390.0,-281.0,834.0,142396.0,142396.0
1970.0,-2381.0,-280.0,842.0,142551.0,142551.0
1971.0,-2397.0,-292.0,842.0,142577.0,142577.0
1972.0,-2382.0,-294.0,848.0,142408.0,142408.0
1973.0,-2377.0,-284.0,844.0,142386.0,142386.0
1974.0,-2387.0,-280.0,838.0,142229.0,142229.0
1975.0,-2394.0,-290.0,842.0,142109.0,142109.0
1976.0,-2390.0,-279.0,842.0,142244.0,142244.0
1977.0,-2395.0,-288.0,838.0,142474.0,142474.0
1978.0,-2391.0,-280.0,846.0,142536.0,142536.0
1979.0,-2394.0,-294.0,844.0,142583.0,142583.0
1980.0,-2388.0,-286.0,840.0,142912.0,142912.0
1981.0,-2378.0,-290.0,840.0,143203.0,143203.0
1982.0,-2386.0,-286.0,848.0,143198.0,143198.0
1983.0,-2380.0,-285.0,854.0,143004.0,143004.0
1984.0,-2388.0,-283.0,842.0,142908.0,142908.0
1985.0,-2375.0,-270.0,840.0,143116.0,143116.0
1986.0,-2385.0,-286.0,850.0,143468.0,143468.0
1987.0,-2378.0,-287.0,838.0,143508.0,143508.0
1988.0,-2402.0,-273.0,838.0,143417.0,143417.0
1989.0,-2385.0,-279.0,848.0,143579.0,143579.0
1990.0,-2384.0,-273.0,846.0,143826.0,143826.0
1991.0,-2385.0,-284.0,858.0,143718.0,143718.0
1992.0,-2387.0,-274.0,850.0,143377.0,143377.0
1993.0,-2388.0,-274.0,872.0,143010.0,143010.0
1994.0,-2396.0,-266.0,844.0,142983.0,142983.0
1995.0,-2392.0,-272.0,840.0,143191.0,143191.0
1996.0,-2383.0,-282.0,858.0,143327.0,143327.0
1997.0,-2378.0,-271.0,835.0,143012.0,143012.0
1998.0,-2383.0,-275.0,846.0,142631.0,142631.0
1999.0,-2378.0,-279.0,856.0,142336.0,142336.0
2000.0,-2389.0,-277.0,862.0,142536.0,142536.0
2001.0,-2381.0,-280.0,856.0,142451.0,142451.0
2002.0,-2391.0,-273.0,850.0,142125.0,142125.0
2003.0,-2373.0,-273.0,864.0,142017.0,142017.0
2004.0,-2389.0,-282.0,838.0,142048.0,142048.0
2005.0,-2393.0,-286.0,848.0,142174.0,142174.0
2006.0,-2383.0,-280.0,858.0,142124.0,142124.0
2007.0,-2396.0,-282.0,846.0,141904.0,141904.0
2008.0,-2386.0,-267.0,856.0,141761.0,141761.0
2009.0,-2396.0,-282.0,848.0,141769.0,141769.0
2010.0,-2389.0,-267.0,858.0,141974.0,141974.0
2011.0,-2390.0,-277.0,860.0,142118.0,142118.0
2012.0,-2388.0,-270.0,856.0,142093.0,142093.0
2013.0,-2390.0,-273.0,862.0,141973.0,141973.0
2014.0,-2392.0,-273.0,872.0,142009.0,142009.0
2015.0,-2397.0,-266.0,850.0,142233.0,142233.0
2016.0,-2401.0,-264.0,872.0,142367.0,142367.0
2017.0,-2401.0,-254.0,842.0,142238.0,142238.0
2018.0,-2398.0,-264.0,860.0,142025.0,142025.0
2019.0,-2399.0,-268.0,856.0,141688.0,141688.0
2020.0,-2388.0,-264.0,864.0,141206.0,141206.0
2021.0,-2399.0,-267.0,856.0,140959.0,140959.0
2022.0,-2378.0,-277.0,860.0,141539.0,141539.0
2023.0,-2384.0,-266.0,852.0,142347.0,142347.0
2024.0,-2395.0,-270.0,868.0,142903.0,142903.0
2025.0,-2383.0,-269.0,862.0,143743.0,143743.0
2026.0,-2391.0,-278.0,866.0,145779.0,145779.0
2027.0,-2394.0,-264.0,852.0,148960.0,148960.0
2028.0,-2389.0,-268.0,852.0,150861.0,150861.0
2029.0,-2394.0,-262.0,846.0,152444.0,152444.0
2030.0,-2404.0,-277.0,846.0,151628.0,151628.0
2031.0,-2404.0,-259.0,836.0,147689.0,147689.0
2032.0,-2381.0,-272.0,852.0,144901.0,144901.0
2033.0,-2404.0,-260.0,848.0,142971.0,142971.0
2034.0,-2380.0,-260.0,846.0,141870.0,141870.0
2035.0,-2374.0,-264.0,860.0,141176.0,141176.0
2036.0,-2387.0,-268.0,852.0,140694.0,140694.0
2037.0,-2380.0,-256.0,846.0,140344.0,140344.0
2038.0,-2374.0,-266.0,846.0,140026.0,140026.0
2039.0,-2390.0,-258.0,860.0,140129.0,140129.0
2040.0,-2399.0,-254.0,854.0,140746.0,140746.0
2041.0,-2404.0,-254.0,838.0,141565.0,141565.0
2042.0,-2394.0,-264.0,842.0,142053.0,142053.0
2043.0,-2371.0,-270.0,852.0,142278.0,142278.0
2044.0,-2380.0,-264.0,862.0,142429.0,142429.0
2045.0,-2378.0,-268.0,850.0,142604.0,142604.0
2046.0,-2389.0,-260.0,870.0,142686.0,142686.0
2047.0,-2382.0,-264.0,850.0,142585.0,142585.0
2048.0,-2392.0,-254.0,864.0,142544.0,142544.0
2049.0,-2392.0,-257.0,852.0,142564.0,142564.0
2050.0,-2401.0,-266.0,840.0,142763.0,142763.0
2051.0,-2394.0,-267.0,856.0,143046.0,143046.0
2052.0,-2391.0,-262.0,848.0,143062.0,143062.0
2053.0,-2384.0,-264.0,844.0,143036.0,143036.0
2054.0,-2380.0,-264.0,844.0,143085.0,143085.0
2055.0,-2381.0,-266.0,862.0,143276.0,143276.0
2056.0,-2378.0,-268.0,856.0,143397.0,143397.0
2057.0,-2376.0,-260.0,858.0,143478.0,143478.0
2058.0,-2380.0,-272.0,860.0,143332.0,143332.0
2059.0,-2387.0,-270.0,862.0,143314.0,143314.0
2060.0,-2390.0,-266.0,858.0,143493.0,143493.0
2061.0,-2383.0,-266.0,840.0,143731.0,143731.0
2062.0,-2389.0,-271.0,827.0,143901.0,143901.0
2063.0,-2404.0,-262.0,810.0,144156.0,144156.0
2064.0,-2380.0,-266.0,832.0,144392.0,144392.0
2065.0,-2381.0,-256.0,850.0,144607.0,144607.0
2066.0,-2378.0,-266.0,834.0,144547.0,144547.0
2067.0,-2378.0,-262.0,829.0,144263.0,144263.0
2068.0,-2392.0,-269.0,850.0,144293.0,144293.0
2069.0,-2376.0,-268.0,840.0,144534.0,144534.0
2070.0,-2383.0,-262.0,854.0,144858.0,144858.0
2071.0,-2385.0,-268.0,850.0,144991.0,144991.0
2072.0,-2383.0,-269.0,864.0,144846.0,144846.0
2073.0,-2400.0,-273.0,850.0,144826.0,144826.0
2074.0,-2392.0,-273.0,848.0,145083.0,145083.0
2075.0,-2408.0,-268.0,858.0,145369.0,145369.0
2076.0,-2413.0,-262.0,864.0,145659.0,145659.0
2077.0,-2396.0,-266.0,850.0,145676.0,145676.0
2078.0,-2404.0,-262.0,866.0,145774.0,145774.0
2079.0,-2391.0,-268.0,848.0,146083.0,146083.0
2080.0,-2385.0,-260.0,860.0,146418.0,146418.0
2081.0,-2394.0,-256.0,860.0,146789.0,146789.0
2082.0,-2385.0,-264.0,846.0,146940.0,146940.0
2083.0,-2378.0,-260.0,848.0,146969.0,146969.0
2084.0,-2397.0,-254.0,850.0,147239.0,147239.0
2085.0,-2405.0,-258.0,850.0,147568.0,147568.0
2086.0,-2397.0,-258.0,866.0,147669.0,147669.0
2087.0,-2401.0,-252.0,862.0,147814.0,147814.0
2088.0,-2396.0,-256.0,842.0,147933.0,147933.0
2089.0,-2399.0,-250.0,848.0,148061.0,148061.0
2090.0,-2383.0,-262.0,856.0,148263.0,148263.0
2091.0,-2385.0,-260.0,848.0,148120.0,148120.0
2092.0,-2386.0,-260.0,846.0,148039.0,148039.0
2093.0,-2394.0,-267.0,852.0,147966.0,147966.0
2094.0,-2387.0,-267.0,856.0,147650.0,147650.0
2095.0,-2390.0,-264.0,848.0,147222.0,147222.0
2096.0,-2392.0,-275.0,848.0,146846.0,146846.0
2097.0,-2390.0,-262.0,852.0,146118.0,146118.0
2098.0,-2396.0,-271.0,844.0,145552.0,145552.0
2099.0,-2390.0,-279.0,838.0,145265.0,145265.0
2100.0,-2392.0,-270.0,858.0,144988.0,144988.0
2101.0,-2371.0,-274.0,860.0,144787.0,144787.0
2102.0,-2379.0,-268.0,844.0,144518.0,144518.0
2103.0,-2380.0,-260.0,852.0,144243.0,144243.0
2104.0,-2387.0,-264.0,856.0,144203.0,144203.0
2105.0,-2392.0,-256.0,846.0,144159.0,144159.0
2106.0,-2380.0,-271.0,856.0,143943.0,143943.0
2107.0,-2383.0,-271.0,850.0,143589.0,143589.0
2108.0,-2395.0,-275.0,850.0,143118.0,143118.0
2109.0,-2382.0,-258.0,850.0,143091.0,143091.0
2110.0,-2378.0,-270.0,854.0,143496.0,143496.0
2111.0,-2392.0,-272.0,842.0,143643.0,143643.0
2112.0,-2390.0,-270.0,848.0,143420.0,143420.0
2113.0,-2387.0,-271.0,846.0,143151.0,143151.0
2114.0,-2388.0,-279.0,846.0,142953.0,142953.0
2115.0,-2395.0,-266.0,844.0,143112.0,143112.0
2116.0,-2373.0,-265.0,856.0,143196.0,143196.0
2117.0,-2397.0,-264.0,842.0,143003.0,143003.0
2118.0,-2408.0,-270.0,848.0,142788.0,142788.0
2119.0,-2406.0,-275.0,846.0,142692.0,142692.0
2120.0,-2390.0,-273.0,864.0,142932.0,142932.0
2121.0,-2378.0,-262.0,860.0,143084.0,143084.0
2122.0,-2386.0,-271.0,848.0,142866.0,142866.0
2123.0,-2374.0,-262.0,852.0,142586.0,142586.0
2124.0,-2380.0,-270.0,848.0,142469.0,142469.0
2125.0,-2385.0,-256.0,856.0,142524.0,142524.0
2126.0,-2399.0,-266.0,864.0,142728.0,142728.0
2127.0,-2400.0,-264.0,834.0,142886.0,142886.0
2128.0,-2409.0,-267.0,842.0,142841.0,142841.0
2129.0,-2411.0,-250.0,848.0,142629.0,142629.0
2130.0,-2404.0,-268.0,842.0,142661.0,142661.0
2131.0,-2399.0,-264.0,832.0,142747.0,142747.0
2132.0,-2400.0,-271.0,830.0,142742.0,142742.0
2133.0,-2394.0,-286.0,836.0,142626.0,142626.0
2134.0,-2376.0,-281.0,830.0,142625.0,142625.0
2135.0,-2376.0,-276.0,836.0,142902.0,142902.0
2136.0,-2383.0,-282.0,854.0,143078.0,143078.0
2137.0,-2380.0,-272.0,860.0,142940.0,142940.0
2138.0,-2385.0,-270.0,838.0,142784.0,142784.0
2139.0,-2390.0,-270.0,848.0,142769.0,142769.0
2140.0,-2383.0,-277.0,852.0,142879.0,142879.0
2141.0,-2390.0,-265.0,846.0,142920.0,142920.0
2142.0,-2397.0,-270.0,864.0,142626.0,142626.0
2143.0,-2402.0,-262.0,852.0,142199.0,142199.0
2144.0,-2401.0,-252.0,848.0,142309.0,142309.0
2145.0,-2388.0,-264.0,840.0,142537.0,142537.0
2146.0,-2388.0,-270.0,835.0,142721.0,142721.0
2147.0,-2382.0,-262.0,842.0,142648.0,142648.0
2148.0,-2376.0,-270.0,850.0,142581.0,142581.0
2149.0,-2389.0,-262.0,844.0,142443.0,142443.0
2150.0,-2391.0,-258.0,844.0,142412.0,142412.0
2151.0,-2386.0,-264.0,856.0,142286.0,142286.0
2152.0,-2382.0,-254.0,864.0,142205.0,142205.0
2153.0,-2390.0,-266.0,844.0,142231.0,142231.0
2154.0,-2390.0,-254.0,837.0,142389.0,142389.0
2155.0,-2390.0,-250.0,844.0,142728.0,142728.0
2156.0,-2381.0,-250.0,866.0,142719.0,142719.0
2157.0,-2400.0,-268.0,866.0,142506.0,142506.0
2158.0,-2399.0,-268.0,872.0,142246.0,142246.0
2159.0,-2388.0,-266.0,848.0,142201.0,142201.0
2160.0,-2399.0,-252.0,858.0,142276.0,142276.0
2161.0,-2396.0,-250.0,852.0,142211.0,142211.0
2162.0,-2399.0,-258.0,862.0,142160.0,142160.0
2163.0,-2394.0,-256.0,846.0,142182.0,142182.0
2164.0,-2388.0,-242.0,850.0,142348.0,142348.0
2165.0,-2391.0,-246.0,868.0,142393.0,142393.0
2166.0,-2397.0,-250.0,848.0,142384.0,142384.0
2167.0,-2397.0,-242.0,844.0,142421.0,142421.0
2168.0,-2390.0,-250.0,844.0,142476.0,142476.0
2169.0,-2387.0,-242.0,858.0,142443.0,142443.0
2170.0,-2383.0,-266.0,852.0,142496.0,142496.0
2171.0,-2395.0,-244.0,846.0,142494.0,142494.0
2172.0,-2390.0,-254.0,848.0,142504.0,142504.0
2173.0,-2387.0,-258.0,854.0,142394.0,142394.0
2174.0,-2390.0,-260.0,860.0,142211.0,142211.0
2175.0,-2395.0,-254.0,852.0,142275.0,142275.0
2176.0,-2396.0,-273.0,850.0,142436.0,142436.0
2177.0,-2404.0,-264.0,854.0,142771.0,142771.0
2178.0,-2403.0,-256.0,850.0,142990.0,142990.0
2179.0,-2395.0,-260.0,832.0,142811.0,142811.0
2180.0,-2385.0,-264.0,846.0,142842.0,142842.0
2181.0,-2385.0,-272.0,864.0,143452.0,143452.0
2182.0,-2389.0,-264.0,846.0,143866.0,143866.0
2183.0,-2387.0,-258.0,846.0,143931.0,143931.0
2184.0,-2382.0,-271.0,848.0,143986.0,143986.0
2185.0,-2392.0,-264.0,846.0,143733.0,143733.0
2186.0,-2373.0,-265.0,846.0,143423.0,143423.0
2187.0,-2382.0,-267.0,844.0,143226.0,143226.0
2188.0,-2378.0,-264.0,848.0,143117.0,143117.0
2189.0,-2371.0,-271.0,842.0,143171.0,143171.0
2190.0,-2387.0,-260.0,860.0,143096.0,143096.0
2191.0,-2399.0,-254.0,854.0,142908.0,142908.0
2192.0,-2388.0,-264.0,838.0,142677.0,142677.0
2193.0,-2393.0,-266.0,856.0,142565.0,142565.0
2194.0,-2388.0,-268.0,840.0,142561.0,142561.0
2195.0,-2393.0,-266.0,842.0,142491.0,142491.0
2196.0,-2384.0,-268.0,844.0,142362.0,142362.0
2197.0,-2385.0,-262.0,848.0,142204.0,142204.0
2198.0,-2389.0,-269.0,842.0,142083.0,142083.0
2199.0,-2383.0,-273.0,819.0,141897.0,141897.0
2200.0,-2383.0,-250.0,831.0,141847.0,141847.0
2201.0,-2389.0,-256.0,850.0,141981.0,141981.0
2202.0,-2385.0,-273.0,842.0,142221.0,142221.0
2203.0,-2392.0,-273.0,858.0,142291.0,142291.0
2204.0,-2380.0,-268.0,838.0,142093.0,142093.0
2205.0,-2397.0,-264.0,846.0,141983.0,141983.0
2206.0,-2390.0,-262.0,838.0,141976.0,141976.0
2207.0,-2387.0,-264.0,842.0,141898.0,141898.0
2208.0,-2400.0,-268.0,844.0,141898.0,141898.0
2209.0,-2381.0,-264.0,844.0,141943.0,141943.0
2210.0,-2387.0,-272.0,840.0,141840.0,141840.0
2211.0,-2380.0,-268.0,842.0,141799.0,141799.0
2212.0,-2374.0,-271.0,844.0,141928.0,141928.0
2213.0,-2398.0,-279.0,850.0,142033.0,142033.0
2214.0,-2397.0,-281.0,856.0,141950.0,141950.0
2215.0,-2396.0,-267.0,860.0,141556.0,141556.0
2216.0,-2387.0,-268.0,848.0,141046.0,141046.0
2217.0,-2398.0,-267.0,846.0,140973.0,140973.0
2218.0,-2374.0,-264.0,862.0,141683.0,141683.0
2219.0,-2380.0,-269.0,860.0,142338.0,142338.0
2220.0,-2395.0,-258.0,862.0,142520.0,142520.0
2221.0,-2402.0,-264.0,856.0,143575.0,143575.0
2222.0,-2384.0,-258.0,852.0,146651.0,146651.0
2223.0,-2391.0,-262.0,840.0,149910.0,149910.0
2224.0,-2399.0,-262.0,850.0,151761.0,151761.0
2225.0,-2402.0,-264.0,840.0,152920.0,152920.0
2226.0,-2387.0,-252.0,848.0,150131.0,150131.0
2227.0,-2395.0,-254.0,842.0,146786.0,146786.0
2228.0,-2392.0,-244.0,838.0,144835.0,144835.0
2229.0,-2388.0,-246.0,844.0,143203.0,143203.0
2230.0,-2387.0,-244.0,854.0,142126.0,142126.0
2231.0,-2399.0,-248.0,844.0,141383.0,141383.0
2232.0,-2383.0,-256.0,858.0,140845.0,140845.0
2233.0,-2402.0,-236.0,852.0,140347.0,140347.0
2234.0,-2401.0,-250.0,846.0,140256.0,140256.0
2235.0,-2400.0,-252.0,844.0,140518.0,140518.0
2236.0,-2404.0,-260.0,862.0,141126.0,141126.0
2237.0,-2414.0,-256.0,846.0,141774.0,141774.0
2238.0,-2394.0,-265.0,850.0,142181.0,142181.0
2239.0,-2385.0,-264.0,866.0,142424.0,142424.0
2240.0,-2388.0,-273.0,866.0,142530.0,142530.0
2241.0,-2380.0,-271.0,868.0,142389.0,142389.0
2242.0,-2372.0,-262.0,874.0,142470.0,142470.0
2243.0,-2376.0,-268.0,862.0,142722.0,142722.0
2244.0,-2380.0,-264.0,876.0,142853.0,142853.0
2245.0,-2385.0,-264.0,862.0,143081.0,143081.0
2246.0,-2389.0,-262.0,842.0,143227.0,143227.0
2247.0,-2374.0,-246.0,862.0,143384.0,143384.0
2248.0,-2376.0,-264.0,856.0,143464.0,143464.0
2249.0,-2369.0,-256.0,852.0,143386.0,143386.0
2250.0,-2369.0,-254.0,862.0,143401.0,143401.0
2251.0,-2364.0,-246.0,864.0,143594.0,143594.0
2252.0,-2374.0,-244.0,856.0,143490.0,143490.0
2253.0,-2380.0,-262.0,866.0,143285.0,143285.0
2254.0,-2372.0,-256.0,880.0,143356.0,143356.0
2255.0,-2390.0,-262.0,866.0,143661.0,143661.0
2256.0,-2383.0,-250.0,882.0,143894.0,143894.0
2257.0,-2382.0,-252.0,870.0,144169.0,144169.0
2258.0,-2376.0,-248.0,870.0,144359.0,144359.0
2259.0,-2391.0,-242.0,848.0,144501.0,144501.0
2260.0,-2402.0,-252.0,852.0,144632.0,144632.0
2261.0,-2379.0,-244.0,854.0,144595.0,144595.0
2262.0,-2380.0,-240.0,860.0,144434.0,144434.0
2263.0,-2374.0,-248.0,864.0,144310.0,144310.0
2264.0,-2373.0,-244.0,876.0,144397.0,144397.0
2265.0,-2381.0,-248.0,870.0,144546.0,144546.0
2266.0,-2378.0,-262.0,876.0,144800.0,144800.0
2267.0,-2381.0,-250.0,874.0,145163.0,145163.0
2268.0,-2392.0,-260.0,870.0,145363.0,145363.0
2269.0,-2387.0,-264.0,862.0,145340.0,145340.0
2270.0,-2385.0,-254.0,868.0,145209.0,145209.0
2271.0,-2387.0,-266.0,862.0,145118.0,145118.0
2272.0,-2380.0,-264.0,868.0,145205.0,145205.0
2273.0,-2388.0,-266.0,874.0,145489.0,145489.0
2274.0,-2390.0,-266.0,866.0,145916.0,145916.0
2275.0,-2388.0,-262.0,852.0,146193.0,146193.0
2276.0,-2381.0,-270.0,858.0,146395.0,146395.0
2277.0,-2383.0,-258.0,854.0,146485.0,146485.0
2278.0,-2378.0,-268.0,872.0,146721.0,146721.0
2279.0,-2380.0,-256.0,872.0,146958.0,146958.0
2280.0,-2371.0,-250.0,882.0,147284.0,147284.0
2281.0,-2373.0,-250.0,872.0,147536.0,147536.0
2282.0,-2378.0,-270.0,866.0,147811.0,147811.0
2283.0,-2378.0,-246.0,862.0,148150.0,148150.0
2284.0,-2380.0,-264.0,858.0,148523.0,148523.0
2285.0,-2365.0,-266.0,878.0,148388.0,148388.0
2286.0,-2380.0,-266.0,874.0,148169.0,148169.0
2287.0,-2376.0,-268.0,878.0,148121.0,148121.0
2288.0,-2374.0,-262.0,866.0,147922.0,147922.0
2289.0,-2362.0,-256.0,858.0,147519.0,147519.0
2290.0,-2362.0,-246.0,858.0,146878.0,146878.0
2291.0,-2362.0,-256.0,850.0,146296.0,146296.0
2292.0,-2372.0,-262.0,856.0,145848.0,145848.0
2293.0,-2367.0,-260.0,864.0,145545.0,145545.0
2294.0,-2383.0,-269.0,852.0,145212.0,145212.0
2295.0,-2378.0,-268.0,856.0,145039.0,145039.0
2296.0,-2393.0,-246.0,876.0,144797.0,144797.0
2297.0,-2382.0,-256.0,862.0,144473.0,144473.0
2298.0,-2375.0,-266.0,862.0,144039.0,144039.0
2299.0,-2395.0,-270.0,860.0,143783.0,143783.0
2300.0,-2378.0,-275.0,856.0,143705.0,143705.0
2301.0,-2371.0,-268.0,868.0,143802.0,143802.0
2302.0,-2387.0,-254.0,876.0,143864.0,143864.0
2303.0,-2370.0,-271.0,862.0,143994.0,143994.0
2304.0,-2378.0,-260.0,872.0,143949.0,143949.0
2305.0,-2382.0,-264.0,882.0,143851.0,143851.0
2306.0,-2372.0,-269.0,870.0,143514.0,143514.0
2307.0,-2374.0,-260.0,868.0,143193.0,143193.0
2308.0,-2380.0,-250.0,874.0,143071.0,143071.0
2309.0,-2388.0,-262.0,868.0,142901.0,142901.0
2310.0,-2381.0,-273.0,866.0,142947.0,142947.0
2311.0,-2388.0,-264.0,878.0,142972.0,142972.0
2312.0,-2392.0,-256.0,858.0,142904.0,142904.0
2313.0,-2394.0,-277.0,864.0,142903.0,142903.0
2314.0,-2396.0,-268.0,856.0,142665.0,142665.0
2315.0,-2379.0,-260.0,876.0,142378.0,142378.0
2316.0,-2378.0,-260.0,870.0,142445.0,142445.0
2317.0,-2387.0,-256.0,854.0,142504.0,142504.0
2318.0,-2376.0,-262.0,880.0,142588.0,142588.0
2319.0,-2369.0,-256.0,874.0,142663.0,142663.0
2320.0,-2383.0,-266.0,880.0,142884.0,142884.0
2321.0,-2380.0,-250.0,872.0,142823.0,142823.0
2322.0,-2385.0,-268.0,866.0,142609.0,142609.0
2323.0,-2399.0,-264.0,872.0,142608.0,142608.0
2324.0,-2408.0,-250.0,856.0,142711.0,142711.0
2325.0,-2396.0,-248.0,840.0,142815.0,142815.0
2326.0,-2383.0,-252.0,858.0,142976.0,142976.0
2327.0,-2390.0,-248.0,848.0,143039.0,143039.0
2328.0,-2393.0,-244.0,846.0,142901.0,142901.0
2329.0,-2360.0,-242.0,862.0,142829.0,142829.0
2330.0,-2371.0,-246.0,878.0,142946.0,142946.0
2331.0,-2369.0,-246.0,862.0,142994.0,142994.0
2332.0,-2376.0,-256.0,856.0,142588.0,142588.0
2333.0,-2378.0,-236.0,860.0,142263.0,142263.0
2334.0,-2385.0,-258.0,862.0,142149.0,142149.0
2335.0,-2389.0,-271.0,854.0,142122.0,142122.0
2336.0,-2395.0,-269.0,866.0,142090.0,142090.0
2337.0,-2397.0,-266.0,846.0,142199.0,142199.0
2338.0,-2390.0,-260.0,870.0,142229.0,142229.0
2339.0,-2385.0,-254.0,872.0,142421.0,142421.0
2340.0,-2390.0,-256.0,860.0,142744.0,142744.0
2341.0,-2389.0,-264.0,852.0,142575.0,142575.0
2342.0,-2371.0,-258.0,868.0,142031.0,142031.0
2343.0,-2374.0,-250.0,868.0,141658.0,141658.0
2344.0,-2380.0,-256.0,860.0,141796.0,141796.0
2345.0,-2376.0,-244.0,862.0,142340.0,142340.0
2346.0,-2381.0,-250.0,872.0,142595.0,142595.0
2347.0,-2385.0,-250.0,858.0,142424.0,142424.0
2348.0,-2382.0,-242.0,872.0,142364.0,142364.0
2349.0,-2390.0,-236.0,874.0,142343.0,142343.0
2350.0,-2390.0,-240.0,878.0,142353.0,142353.0
2351.0,-2380.0,-244.0,880.0,142433.0,142433.0
2352.0,-2386.0,-246.0,874.0,142308.0,142308.0
2353.0,-2369.0,-252.0,870.0,142003.0,142003.0
2354.0,-2402.0,-237.0,854.0,141896.0,141896.0
2355.0,-2396.0,-260.0,852.0,141923.0,141923.0
2356.0,-2400.0,-242.0,856.0,141985.0,141985.0
2357.0,-2383.0,-248.0,870.0,142092.0,142092.0
2358.0,-2394.0,-252.0,852.0,142048.0,142048.0
2359.0,-2385.0,-252.0,846.0,142022.0,142022.0
2360.0,-2383.0,-248.0,850.0,142085.0,142085.0
2361.0,-2399.0,-250.0,860.0,142149.0,142149.0
2362.0,-2402.0,-248.0,874.0,141811.0,141811.0
2363.0,-2387.0,-262.0,856.0,141544.0,141544.0
2364.0,-2388.0,-252.0,862.0,141605.0,141605.0
2365.0,-2402.0,-268.0,870.0,141885.0,141885.0
2366.0,-2381.0,-258.0,864.0,142094.0,142094.0
2367.0,-2400.0,-254.0,866.0,141808.0,141808.0
2368.0,-2378.0,-268.0,878.0,141549.0,141549.0
2369.0,-2380.0,-279.0,876.0,141465.0,141465.0
2370.0,-2385.0,-274.0,852.0,141570.0,141570.0
2371.0,-2387.0,-274.0,872.0,141641.0,141641.0
2372.0,-2378.0,-273.0,872.0,141666.0,141666.0
2373.0,-2376.0,-279.0,866.0,141533.0,141533.0
2374.0,-2374.0,-266.0,864.0,141510.0,141510.0
2375.0,-2376.0,-273.0,870.0,141592.0,141592.0
2376.0,-2376.0,-260.0,872.0,141661.0,141661.0
2377.0,-2370.0,-248.0,868.0,141715.0,141715.0
2378.0,-2383.0,-269.0,862.0,141733.0,141733.0
2379.0,-2378.0,-262.0,864.0,141794.0,141794.0
2380.0,-2393.0,-260.0,862.0,142012.0,142012.0
2381.0,-2392.0,-250.0,862.0,142188.0,142188.0
2382.0,-2393.0,-254.0,852.0,142169.0,142169.0
2383.0,-2408.0,-260.0,856.0,142124.0,142124.0
2384.0,-2403.0,-254.0,862.0,142229.0,142229.0
2385.0,-2399.0,-248.0,848.0,142573.0,142573.0
2386.0,-2402.0,-264.0,860.0,142768.0,142768.0
2387.0,-2385.0,-268.0,854.0,142677.0,142677.0
2388.0,-2387.0,-268.0,854.0,142293.0,142293.0
2389.0,-2382.0,-260.0,872.0,141995.0,141995.0
2390.0,-2369.0,-258.0,872.0,141881.0,141881.0
2391.0,-2381.0,-271.0,862.0,142035.0,142035.0
2392.0,-2373.0,-279.0,848.0,142147.0,142147.0
2393.0,-2381.0,-260.0,856.0,142012.0,142012.0
2394.0,-2376.0,-277.0,850.0,141606.0,141606.0
2395.0,-2382.0,-248.0,840.0,141605.0,141605.0
2396.0,-2397.0,-258.0,858.0,141707.0,141707.0
2397.0,-2390.0,-260.0,860.0,141586.0,141586.0
2398.0,-2385.0,-244.0,854.0,141314.0,141314.0
2399.0,-2383.0,-244.0,854.0,141143.0,141143.0
2400.0,-2391.0,-246.0,856.0,141106.0,141106.0
2401.0,-2404.0,-240.0,856.0,141030.0,141030.0
2402.0,-2381.0,-236.0,844.0,140984.0,140984.0
2403.0,-2397.0,-246.0,848.0,140845.0,140845.0
2404.0,-2372.0,-240.0,848.0,140739.0,140739.0
2405.0,-2396.0,-250.0,854.0,140951.0,140951.0
2406.0,-2396.0,-240.0,842.0,141199.0,141199.0
2407.0,-2390.0,-244.0,854.0,141151.0,141151.0
2408.0,-2405.0,-250.0,829.0,141078.0,141078.0
2409.0,-2392.0,-240.0,836.0,141095.0,141095.0
2410.0,-2380.0,-228.0,838.0,141255.0,141255.0
2411.0,-2388.0,-244.0,838.0,141439.0,141439.0
2412.0,-2394.0,-250.0,854.0,141188.0,141188.0
2413.0,-2406.0,-264.0,840.0,140729.0,140729.0
2414.0,-2409.0,-260.0,840.0,140640.0,140640.0
2415.0,-2408.0,-258.0,833.0,140769.0,140769.0
2416.0,-2411.0,-262.0,831.0,140898.0,140898.0
2417.0,-2406.0,-266.0,838.0,140793.0,140793.0
2418.0,-2400.0,-258.0,808.0,140403.0,140403.0
2419.0,-2399.0,-268.0,836.0,140791.0,140791.0
2420.0,-2402.0,-274.0,832.0,141642.0,141642.0
2421.0,-2385.0,-269.0,830.0,142183.0,142183.0
2422.0,-2401.0,-263.0,829.0,142670.0,142670.0
2423.0,-2395.0,-271.0,830.0,144439.0,144439.0
2424.0,-2379.0,-244.0,838.0,147952.0,147952.0
2425.0,-2375.0,-250.0,823.0,150561.0,150561.0
2426.0,-2381.0,-250.0,831.0,152461.0,152461.0
2427.0,-2387.0,-254.0,831.0,152138.0,152138.0
2428.0,-2401.0,-258.0,832.0,148373.0,148373.0
2429.0,-2378.0,-252.0,834.0,145163.0,145163.0
2430.0,-2379.0,-238.0,802.0,143052.0,143052.0
2431.0,-2381.0,-252.0,827.0,141999.0,141999.0
2432.0,-2385.0,-266.0,825.0,141207.0,141207.0
2433.0,-2391.0,-246.0,823.0,140518.0,140518.0
2434.0,-2407.0,-246.0,817.0,140104.0,140104.0
2435.0,-2398.0,-240.0,820.0,139703.0,139703.0
2436.0,-2408.0,-238.0,808.0,139835.0,139835.0
2437.0,-2411.0,-244.0,810.0,140286.0,140286.0
2438.0,-2419.0,-244.0,806.0,140948.0,140948.0
2439.0,-2416.0,-248.0,796.0,141271.0,141271.0
2440.0,-2414.0,-256.0,804.0,141484.0,141484.0
2441.0,-2401.0,-260.0,814.0,141454.0,141454.0
2442.0,-2404.0,-262.0,818.0,141604.0,141604.0
2443.0,-2402.0,-256.0,820.0,141565.0,141565.0
2444.0,-2406.0,-266.0,804.0,141499.0,141499.0
2445.0,-2401.0,-244.0,832.0,141652.0,141652.0
2446.0,-2411.0,-244.0,828.0,141896.0,141896.0
2447.0,-2404.0,-246.0,820.0,142046.0,142046.0
2448.0,-2408.0,-242.0,820.0,142187.0,142187.0
2449.0,-2390.0,-242.0,834.0,142437.0,142437.0
2450.0,-2396.0,-234.0,827.0,142754.0,142754.0
2451.0,-2387.0,-232.0,838.0,143001.0,143001.0
2452.0,-2387.0,-236.0,846.0,142984.0,142984.0
2453.0,-2404.0,-236.0,838.0,142558.0,142558.0
2454.0,-2398.0,-227.0,852.0,142083.0,142083.0
2455.0,-2388.0,-228.0,838.0,142213.0,142213.0
2456.0,-2408.0,-224.0,840.0,142792.0,142792.0
2457.0,-2401.0,-236.0,840.0,143214.0,143214.0
2458.0,-2409.0,-240.0,816.0,143336.0,143336.0
2459.0,-2416.0,-246.0,812.0,143389.0,143389.0
2460.0,-2416.0,-234.0,812.0,143549.0,143549.0
2461.0,-2408.0,-246.0,806.0,143846.0,143846.0
2462.0,-2399.0,-270.0,814.0,143896.0,143896.0
2463.0,-2402.0,-254.0,814.0,143786.0,143786.0
2464.0,-2400.0,-252.0,838.0,143873.0,143873.0
2465.0,-2404.0,-246.0,831.0,144431.0,144431.0
2466.0,-2406.0,-250.0,840.0,144780.0,144780.0
2467.0,-2413.0,-258.0,844.0,144748.0,144748.0
2468.0,-2406.0,-254.0,846.0,144637.0,144637.0
2469.0,-2411.0,-246.0,846.0,144691.0,144691.0
2470.0,-2401.0,-260.0,856.0,144939.0,144939.0
2471.0,-2404.0,-254.0,864.0,145146.0,145146.0
2472.0,-2394.0,-252.0,858.0,145258.0,145258.0
2473.0,-2393.0,-248.0,850.0,145120.0,145120.0
2474.0,-2376.0,-236.0,842.0,145095.0,145095.0
2475.0,-2366.0,-238.0,834.0,145486.0,145486.0
2476.0,-2376.0,-230.0,838.0,146080.0,146080.0
2477.0,-2382.0,-225.0,830.0,146429.0,146429.0
2478.0,-2374.0,-220.0,842.0,146361.0,146361.0
2479.0,-2393.0,-225.0,842.0,146144.0,146144.0
2480.0,-2397.0,-218.0,838.0,146359.0,146359.0
2481.0,-2397.0,-222.0,833.0,146847.0,146847.0
2482.0,-2390.0,-212.0,832.0,147161.0,147161.0
2483.0,-2397.0,-218.0,836.0,147138.0,147138.0
2484.0,-2401.0,-219.0,840.0,147076.0,147076.0
2485.0,-2395.0,-228.0,838.0,147343.0,147343.0
2486.0,-2395.0,-219.0,829.0,147916.0,147916.0
2487.0,-2401.0,-218.0,834.0,148258.0,148258.0
2488.0,-2406.0,-212.0,823.0,147989.0,147989.0
2489.0,-2397.0,-221.0,819.0,147604.0,147604.0
2490.0,-2390.0,-223.0,844.0,147395.0,147395.0
2491.0,-2386.0,-232.0,846.0,147329.0,147329.0
2492.0,-2385.0,-220.0,836.0,147084.0,147084.0
2493.0,-2389.0,-234.0,850.0,146551.0,146551.0
2494.0,-2364.0,-223.0,846.0,145935.0,145935.0
2495.0,-2395.0,-246.0,858.0,145671.0,145671.0
2496.0,-2401.0,-240.0,860.0,145659.0,145659.0
2497.0,-2406.0,-240.0,858.0,145208.0,145208.0
2498.0,-2404.0,-242.0,840.0,144574.0,144574.0
2499.0,-2408.0,-262.0,839.0,144296.0,144296.0
2500.0,-2415.0,-262.0,854.0,144319.0,144319.0
2501.0,-2399.0,-248.0,872.0,144508.0,144508.0
2502.0,-2396.0,-258.0,850.0,144311.0,144311.0
2503.0,-2411.0,-268.0,839.0,143858.0,143858.0
2504.0,-2398.0,-260.0,870.0,143619.0,143619.0
2505.0,-2395.0,-262.0,854.0,143318.0,143318.0
2506.0,-2406.0,-246.0,842.0,143348.0,143348.0
2507.0,-2390.0,-269.0,842.0,143582.0,143582.0
2508.0,-2384.0,-260.0,850.0,143506.0,143506.0
2509.0,-2389.0,-262.0,848.0,143624.0,143624.0
2510.0,-2383.0,-240.0,840.0,143943.0,143943.0
2511.0,-2388.0,-254.0,832.0,143929.0,143929.0
2512.0,-2391.0,-248.0,840.0,143659.0,143659.0
2513.0,-2381.0,-240.0,838.0,143296.0,143296.0
2514.0,-2376.0,-234.0,852.0,143009.0,143009.0
2515.0,-2378.0,-221.0,842.0,143211.0,143211.0
2516.0,-2373.0,-215.0,842.0,143555.0,143555.0
2517.0,-2370.0,-192.0,850.0,143533.0,143533.0
2518.0,-2370.0,-200.0,840.0,143136.0,143136.0
2519.0,-2363.0,-190.0,854.0,142832.0,142832.0
2520.0,-2376.0,-198.0,850.0,142964.0,142964.0
2521.0,-2376.0,-204.0,846.0,143168.0,143168.0
2522.0,-2370.0,-196.0,854.0,143008.0,143008.0
2523.0,-2377.0,-204.0,850.0,142628.0,142628.0
2524.0,-2389.0,-208.0,844.0,142423.0,142423.0
2525.0,-2388.0,-204.0,825.0,142545.0,142545.0
2526.0,-2394.0,-204.0,820.0,142881.0,142881.0
2527.0,-2397.0,-204.0,822.0,143404.0,143404.0
2528.0,-2394.0,-204.0,817.0,143233.0,143233.0
2529.0,-2385.0,-214.0,794.0,142869.0,142869.0
2530.0,-2375.0,-208.0,806.0,143112.0,143112.0
2531.0,-2378.0,-204.0,804.0,143569.0,143569.0
2532.0,-2378.0,-206.0,817.0,143777.0,143777.0
2533.0,-2374.0,-213.0,810.0,143584.0,143584.0
2534.0,-2383.0,-202.0,832.0,143379.0,143379.0
2535.0,-2367.0,-204.0,820.0,143358.0,143358.0
2536.0,-2385.0,-214.0,834.0,143611.0,143611.0
2537.0,-2395.0,-220.0,827.0,143632.0,143632.0
2538.0,-2389.0,-226.0,830.0,143173.0,143173.0
2539.0,-2392.0,-228.0,840.0,142782.0,142782.0
2540.0,-2391.0,-225.0,840.0,142995.0,142995.0
2541.0,-2392.0,-228.0,825.0,143524.0,143524.0
2542.0,-2394.0,-238.0,860.0,143653.0,143653.0
2543.0,-2394.0,-240.0,840.0,143328.0,143328.0
2544.0,-2374.0,-234.0,848.0,142941.0,142941.0
2545.0,-2380.0,-226.0,842.0,143069.0,143069.0
2546.0,-2374.0,-225.0,850.0,143504.0,143504.0
2547.0,-2376.0,-230.0,840.0,143690.0,143690.0
2548.0,-2359.0,-226.0,825.0,143322.0,143322.0
2549.0,-2373.0,-221.0,825.0,142969.0,142969.0
2550.0,-2376.0,-223.0,832.0,143220.0,143220.0
2551.0,-2363.0,-221.0,823.0,143722.0,143722.0
2552.0,-2378.0,-212.0,823.0,143707.0,143707.0
2553.0,-2373.0,-208.0,829.0,143524.0,143524.0
2554.0,-2390.0,-206.0,836.0,143346.0,143346.0
2555.0,-2384.0,-210.0,834.0,143358.0,143358.0
2556.0,-2402.0,-221.0,844.0,143593.0,143593.0
2557.0,-2397.0,-212.0,844.0,143585.0,143585.0
2558.0,-2407.0,-221.0,852.0,143334.0,143334.0
2559.0,-2404.0,-214.0,832.0,143120.0,143120.0
2560.0,-2409.0,-218.0,842.0,143174.0,143174.0
2561.0,-2425.0,-232.0,842.0,143406.0,143406.0
2562.0,-2429.0,-220.0,846.0,143257.0,143257.0
2563.0,-2425.0,-221.0,844.0,143143.0,143143.0
2564.0,-2418.0,-230.0,836.0,143116.0,143116.0
2565.0,-2420.0,-226.0,842.0,143326.0,143326.0
2566.0,-2419.0,-236.0,836.0,143674.0,143674.0
2567.0,-2422.0,-242.0,810.0,143698.0,143698.0
2568.0,-2402.0,-240.0,838.0,143388.0,143388.0
2569.0,-2409.0,-250.0,840.0,143263.0,143263.0
2570.0,-2387.0,-256.0,852.0,143415.0,143415.0
2571.0,-2401.0,-246.0,856.0,143633.0,143633.0
2572.0,-2387.0,-262.0,852.0,143562.0,143562.0
2573.0,-2389.0,-250.0,854.0,143172.0,143172.0
2574.0,-2392.0,-264.0,860.0,142982.0,142982.0
2575.0,-2382.0,-256.0,856.0,143176.0,143176.0
2576.0,-2381.0,-250.0,862.0,143615.0,143615.0
2577.0,-2371.0,-264.0,862.0,143914.0,143914.0
2578.0,-2382.0,-254.0,846.0,143615.0,143615.0
2579.0,-2376.0,-238.0,856.0,143392.0,143392.0
2580.0,-2369.0,-242.0,840.0,143423.0,143423.0
2581.0,-2368.0,-227.0,844.0,143501.0,143501.0
2582.0,-2355.0,-234.0,858.0,143476.0,143476.0
2583.0,-2358.0,-228.0,825.0,143342.0,143342.0
2584.0,-2355.0,-217.0,850.0,143443.0,143443.0
2585.0,-2359.0,-217.0,848.0,143796.0,143796.0
2586.0,-2369.0,-220.0,840.0,144210.0,144210.0
2587.0,-2372.0,-210.0,846.0,144336.0,144336.0
2588.0,-2380.0,-210.0,856.0,144191.0,144191.0
2589.0,-2385.0,-206.0,829.0,143999.0,143999.0
2590.0,-2387.0,-206.0,852.0,144100.0,144100.0
2591.0,-2385.0,-208.0,844.0,144523.0,144523.0
2592.0,-2388.0,-218.0,842.0,144715.0,144715.0
2593.0,-2383.0,-204.0,842.0,144518.0,144518.0
2594.0,-2399.0,-196.0,844.0,144379.0,144379.0
2595.0,-2389.0,-212.0,840.0,144542.0,144542.0
2596.0,-2389.0,-206.0,827.0,144843.0,144843.0
2597.0,-2387.0,-219.0,842.0,144926.0,144926.0
2598.0,-2392.0,-214.0,838.0,144369.0,144369.0
2599.0,-2399.0,-218.0,834.0,143838.0,143838.0
2600.0,-2393.0,-226.0,860.0,144003.0,144003.0
2601.0,-2390.0,-224.0,838.0,144275.0,144275.0
2602.0,-2403.0,-221.0,840.0,144146.0,144146.0
2603.0,-2402.0,-228.0,846.0,143723.0,143723.0
2604.0,-2390.0,-232.0,842.0,143514.0,143514.0
2605.0,-2383.0,-236.0,840.0,143769.0,143769.0
2606.0,-2388.0,-238.0,846.0,144135.0,144135.0
2607.0,-2385.0,-242.0,846.0,143994.0,143994.0
2608.0,-2383.0,-240.0,840.0,143541.0,143541.0
2609.0,-2369.0,-223.0,838.0,143344.0,143344.0
2610.0,-2383.0,-238.0,835.0,143451.0,143451.0
2611.0,-2383.0,-248.0,836.0,143561.0,143561.0
2612.0,-2383.0,-232.0,836.0,143558.0,143558.0
2613.0,-2376.0,-236.0,829.0,143331.0,143331.0
2614.0,-2382.0,-232.0,823.0,143220.0,143220.0
2615.0,-2390.0,-232.0,838.0,143415.0,143415.0
2616.0,-2374.0,-242.0,844.0,143691.0,143691.0
2617.0,-2378.0,-239.0,842.0,143582.0,143582.0
2618.0,-2385.0,-236.0,831.0,143243.0,143243.0
2619.0,-2376.0,-250.0,842.0,142996.0,142996.0
2620.0,-2376.0,-250.0,840.0,143143.0,143143.0
2621.0,-2371.0,-252.0,840.0,143563.0,143563.0
2622.0,-2388.0,-242.0,844.0,143681.0,143681.0
2623.0,-2395.0,-258.0,846.0,143364.0,143364.0
2624.0,-2393.0,-244.0,844.0,143123.0,143123.0
2625.0,-2387.0,-254.0,846.0,142978.0,142978.0
2626.0,-2381.0,-250.0,842.0,143032.0,143032.0
2627.0,-2382.0,-258.0,848.0,143444.0,143444.0
2628.0,-2399.0,-262.0,852.0,144023.0,144023.0
2629.0,-2398.0,-260.0,840.0,144370.0,144370.0
2630.0,-2386.0,-266.0,834.0,145246.0,145246.0
